SampleIdent               : oreas 24b
TimeMeasured              : 16/08/2017 12:37:34
Application               : <Omnian>
ConditionSet              : Omnian
Instrument                : Epsilon1
InstrumentSerial          : 672 (M-672)
TubeAnode                 : Ag 50
Detector                  : SDD5
kV                        : 50.000
mA                        : 0.100
uA                        : 100
Filter                    : Ag 100
Medium                    : Air
PeakingTimeNr             : 3
ZeroReference             : -0.006660745945
GainReference             : 0.008007249795
NoiseReference            : 0.071620985866
FanoReference             : 0.127556249499
ZeroInit                  : -0.006602666806
GainInit                  : 0.008007533848
NoiseInit                 : 0.073252178729
FanoInit                  : 0.128453314304
ZeroFit                   : -0.011647688225
GainFit                   : 0.008025442250
NoiseFit                  : 0.073794580996
FanoFit                   : 0.133350536227
NormFactor                : 1.001468539238
NormRefCounts             : 66115.265625000000
NormCurCounts             : 66018.312500000000
ROI-Fit (chan)            : 250
ROI-Fit (chan)            : 4094
Chi-square                : 1.022429585457
RefPressure               : 974.60
RefTemp                   : 29.300
MeasPressure              : 1005.10
MeasTemp                  : 30.800
Delta_hPa                 : 25.176704406738
HeliumFlow                : 0.00
LiveTime                  : 8.772421900000
TrueTime                  : 12.000493000000
FastChanLiveT             : 10.036595000000
FastChanDeadT             : 1.963898000000
DeadTime                  : 3.228071100000
DeadTimePct               : 26.899
FastChanCounts            : 617819
OutputCounts              : 536386
UnderflowCounts           : 0
OverflowCounts            : -18414
TotalCounts               : 554800
NrOfChannels              : 4096
Energy (keV)	Counts	Background	Fit
-1.164769E-02	0	0	0
-3.622246E-03	0	0	0
4.403196E-03	0	0	0
1.242864E-02	0	0	0
2.045408E-02	0	0	0
2.847952E-02	0	0	0
3.650497E-02	0	0	0
4.453041E-02	0	0	0
5.255585E-02	0	0	0
6.058129E-02	0	0	0
6.860673E-02	0	0	0
7.663218E-02	0	0	0
8.465762E-02	0	0	0
9.268306E-02	0	0	0
0.1007085	0	0	0
0.1087339	0	0	0
0.1167594	0	0	0
0.1247848	0	0	0
0.1328103	0	0	0
0.1408357	0	0	0
0.1488612	1	0	0
0.1568866	0	0	0
0.164912	0	0	0
0.1729375	0	0	0
0.1809629	0	0	0
0.1889884	0	0	0
0.1970138	0	0	0
0.2050392	0	0	0
0.2130647	0	0	0
0.2210901	0	0	0
0.2291156	0	0	0
0.237141	0	0	0
0.2451665	0	0	0
0.2531919	0	0	0
0.2612174	0	0	0
0.2692428	0	0	0
0.2772682	0	0	0
0.2852937	0	0	0
0.2933191	0	0	0
0.3013446	0	0	0
0.30937	0	0	0
0.3173954	0	0	0
0.3254209	0	0	0
0.3334463	0	0	0
0.3414718	0	0	0
0.3494972	0	0	0
0.3575227	0	0	0
0.3655481	0	0	0
0.3735735	0	0	0
0.381599	0	0	0
0.3896244	0	0	0
0.3976499	0	0	0
0.4056753	0	0	0
0.4137008	0	0	0
0.4217262	0	0	0
0.4297516	0	0	0
0.4377771	0	0	0
0.4458025	0	0	0
0.453828	0	0	0
0.4618534	0	0	0
0.4698789	0	0	0
0.4779043	0	0	0
0.4859297	0	0	0
0.4939552	0	0	0
0.5019806	0	0	0
0.5100061	0	0	0
0.5180315	0	0	0
0.5260569	0	0	0
0.5340824	0	0	0
0.5421078	1	0	0
0.5501333	1	0	0
0.5581587	2	0	0
0.5661842	1	0	0
0.5742096	0	0	0
0.582235	1	0	0
0.5902605	3	0	0
0.5982859	2	0	0
0.6063114	1	0	0
0.6143368	3	0	0
0.6223623	5	0	0
0.6303877	6	0	0
0.6384131	10	0	0
0.6464386	3	0	0
0.654464	6	0	0
0.6624895	11	0	0
0.6705149	4	0	0
0.6785403	15	0	0
0.6865658	9	0	0
0.6945912	13	0	0
0.7026167	11	0	0
0.7106421	22	0	0
0.7186676	22	0	0
0.726693	18	0	0
0.7347184	31	0	0
0.7427439	23	0	0
0.7507693	34	0	0
0.7587948	31	0	0
0.7668202	32	0	0
0.7748457	43	0	0
0.7828711	34	0	0
0.7908965	47	0	0
0.798922	43	0	0
0.8069474	30	0	0
0.8149729	40	0	0
0.8229983	59	0	0
0.8310238	44	0	0
0.8390492	52	0	0
0.8470746	44	0	0
0.8551001	42	0	0
0.8631255	50	0	0
0.871151	51	0	0
0.8791764	36	0	0
0.8872018	52	0	0
0.8952273	50	0	0
0.9032527	42	0	0
0.9112782	50	0	0
0.9193036	44	0	0
0.9273291	47	0	0
0.9353545	61	0	0
0.9433799	50	0	0
0.9514054	62	0	0
0.9594308	57	0	0
0.9674563	59	0	0
0.9754817	55	0	0
0.9835072	46	0	0
0.9915326	50	0	0
0.999558	59	0	0
1.007583	54	0	0
1.015609	31	0	0
1.023634	55	0	0
1.03166	46	0	0
1.039685	48	0	0
1.047711	43	0	0
1.055736	58	0	0
1.063762	51	0	0
1.071787	42	0	0
1.079812	54	0	0
1.087838	45	0	0
1.095863	43	0	0
1.103889	49	0	0
1.111914	39	0	0
1.11994	49	0	0
1.127965	48	0	0
1.135991	46	0	0
1.144016	49	0	0
1.152041	53	0	0
1.160067	48	0	0
1.168092	42	0	0
1.176118	51	0	0
1.184143	40	0	0
1.192169	67	0	0
1.200194	46	0	0
1.20822	44	0	0
1.216245	42	0	0
1.22427	48	0	0
1.232296	36	0	0
1.240321	58	0	0
1.248347	54	0	0
1.256372	57	0	0
1.264398	44	0	0
1.272423	41	0	0
1.280449	45	0	0
1.288474	49	0	0
1.296499	48	0	0
1.304525	56	0	0
1.31255	41	0	0
1.320576	43	0	0
1.328601	45	0	0
1.336627	41	0	0
1.344652	43	0	0
1.352677	41	0	0
1.360703	58	0	0
1.368728	43	0	0
1.376754	52	0	0
1.384779	47	0	0
1.392805	54	0	0
1.40083	42	0	0
1.408856	42	0	0
1.416881	50	0	0
1.424906	41	0	0
1.432932	50	0	0
1.440957	38	0	0
1.448983	49	0	0
1.457008	66	0	0
1.465034	55	0	0
1.473059	52	0	0
1.481085	51	0	0
1.48911	61	0	0
1.497135	47	0	0
1.505161	46	0	0
1.513186	49	0	0
1.521212	59	0	0
1.529237	55	0	0
1.537263	58	0	0
1.545288	54	0	0
1.553313	46	0	0
1.561339	44	0	0
1.569364	43	0	0
1.57739	43	0	0
1.585415	43	0	0
1.593441	45	0	0
1.601466	51	0	0
1.609492	38	0	0
1.617517	53	0	0
1.625543	37	0	0
1.633568	47	0	0
1.641593	44	0	0
1.649619	44	0	0
1.657644	43	0	0
1.66567	51	0	0
1.673695	43	0	0
1.681721	47	0	0
1.689746	65	0	0
1.697772	55	0	0
1.705797	67	0	0
1.713822	59	0	0
1.721848	65	0	0
1.729873	58	0	0
1.737899	62	0	0
1.745924	71	0	0
1.75395	61	0	0
1.761975	74	0	0
1.77	61	0	0
1.778026	55	0	0
1.786051	49	0	0
1.794077	36	0	0
1.802102	35	0	0
1.810128	39	0	0
1.818153	44	0	0
1.826179	37	0	0
1.834204	41	0	0
1.842229	36	0	0
1.850255	38	0	0
1.85828	37	0	0
1.866306	51	0	0
1.874331	36	0	0
1.882357	32	0	0
1.890382	36	0	0
1.898408	36	0	0
1.906433	30	0	0
1.914458	25	0	0
1.922484	26	0	0
1.930509	37	0	0
1.938535	33	0	0
1.94656	30	0	0
1.954586	44	0	0
1.962611	47	0	0
1.970637	33	0	0
1.978662	33	0	0
1.986687	27	0	0
1.994713	31	29.68066	32.50879
2.002738	35	29.31152	31.54004
2.010764	28	28.94238	30.72168
2.018789	30	28.5752	30.02148
2.026815	34	28.27832	29.47852
2.03484	26	27.97949	28.99902
2.042866	21	27.66504	28.54883
2.050891	35	27.34277	28.12109
2.058916	30	27.01758	27.70898
2.066942	26	26.69238	27.30762
2.074967	30	26.37012	26.91504
2.082993	22	26.08398	26.56445
2.091018	38	25.78613	26.20703
2.099044	24	25.48145	25.85254
2.107069	23	25.17578	25.50684
2.115094	22	24.87109	25.17383
2.12312	28	24.55273	24.8418
2.131145	22	24.22949	24.51953
2.139171	23	23.90723	24.21289
2.147196	23	23.62402	23.9541
2.155222	27	23.30957	23.6748
2.163247	18	22.99805	23.40137
2.171273	28	22.97363	23.41797
2.179298	24	22.92969	23.41113
2.187324	25	22.8623	23.37695
2.195349	17	22.78418	23.32617
2.203374	25	22.7041	23.27051
2.2114	23	22.62012	23.21191
2.219425	26	22.5293	23.15234
2.227451	28	22.43555	23.10352
2.235476	17	22.33008	23.06836
2.243502	24	22.21875	23.06152
2.251527	34	22.10352	23.0957
2.259552	22	21.98535	23.17871
2.267578	29	21.86621	23.31836
2.275603	28	21.74414	23.5127
2.283629	27	21.62109	23.75586
2.291654	19	21.48633	24.02539
2.29968	19	21.34668	24.30859
2.307705	21	21.20703	24.58496
2.315731	24	21.11328	24.87402
2.323756	21	21.01465	25.0957
2.331781	31	20.89941	25.21582
2.339807	26	20.77734	25.22852
2.347832	36	20.65234	25.12891
2.355858	29	20.51563	24.91211
2.363883	24	20.37305	24.59766
2.371909	16	20.23047	24.21191
2.379934	26	20.13867	23.8291
2.387959	25	20.04395	23.42383
2.395985	29	19.93457	23.00488
2.404011	19	19.81543	22.59473
2.412036	21	19.69141	22.20898
2.420061	25	19.55664	21.84375
2.428087	18	19.41699	21.50293
2.436112	16	19.27734	21.18555
2.444138	20	19.16016	20.90332
2.452163	26	19.04297	20.62988
2.460189	23	18.9248	20.35547
2.468214	19	18.7998	20.07324
2.476239	25	18.67188	19.78809
2.484265	13	18.54297	19.50293
2.49229	17	18.41211	19.22559
2.500316	21	18.27051	18.9502
2.508341	21	18.125	18.68848
2.516367	28	17.97656	18.44727
2.524392	10	17.82715	18.23242
2.532418	15	17.67871	18.0459
2.540443	11	17.58105	17.94043
2.548468	20	17.47949	17.85938
2.556494	16	17.35938	17.78516
2.564519	20	17.23047	17.72461
2.572545	21	17.10254	17.68262
2.58057	27	16.99707	17.67578
2.588596	16	16.88965	17.67188
2.596621	16	16.77051	17.65527
2.604646	17	16.64453	17.62305
2.612672	17	16.51855	17.57617
2.620697	17	16.38477	17.50098
2.628723	13	16.24512	17.39648
2.636748	17	16.10254	17.26465
2.644774	18	15.95801	17.1084
2.652799	21	15.81152	16.93164
2.660825	17	15.64648	16.72461
2.66885	18	15.47363	16.50391
2.676875	21	15.30078	16.28613
2.684901	13	15.3623	16.31055
2.692926	12	15.41504	16.33887
2.700952	18	15.44922	16.36426
2.708977	11	15.47266	16.39551
2.717003	18	15.49707	16.44141
2.725028	13	15.51367	16.49121
2.733053	14	15.52539	16.54004
2.741079	18	15.53711	16.58691
2.749104	16	15.55273	16.63086
2.75713	15	15.56348	16.65918
2.765155	21	15.57129	16.66797
2.773181	18	15.57813	16.65918
2.781206	28	15.57813	16.62891
2.789232	22	15.5752	16.58203
2.797257	17	15.57031	16.52637
2.805283	22	15.55664	16.46289
2.813308	19	15.53809	16.40527
2.821333	16	15.51465	16.36621
2.829359	24	15.48828	16.36426
2.837384	19	15.46191	16.42188
2.84541	20	15.43262	16.55859
2.853435	16	15.39453	16.7959
2.861461	19	15.35254	17.16699
2.869486	12	15.30859	17.70215
2.877512	21	15.2627	18.43066
2.885537	18	15.20605	19.36621
2.893562	20	15.14258	20.5293
2.901588	18	15.0791	21.92383
2.909613	31	15.11426	23.62988
2.917639	24	15.14258	25.50586
2.925664	27	15.15918	27.4834
2.93369	36	15.16992	29.4834
2.941715	39	15.17969	31.41113
2.94974	39	15.18848	33.1582
2.957766	28	15.19629	34.61523
2.965791	29	15.20215	35.68457
2.973817	36	15.20508	36.29395
2.981842	36	15.20605	36.39941
2.989868	36	15.20605	35.99805
2.997893	24	15.20508	35.12598
3.005919	36	15.20215	33.85156
3.013944	34	15.19727	32.27246
3.02197	43	15.18945	30.50684
3.029995	33	15.17285	28.67188
3.03802	34	15.15137	26.89063
3.046046	28	15.12793	25.26953
3.054071	20	15.10254	23.89355
3.062097	25	15.07715	22.82031
3.070122	26	15.0459	22.07227
3.078148	18	15.01074	21.65332
3.086173	23	14.97266	21.54297
3.094198	30	14.93164	21.69434
3.102224	25	14.88672	22.05371
3.110249	31	14.83691	22.55176
3.118275	22	14.78418	23.12598
3.1263	28	14.73047	23.72168
3.134326	23	14.74414	24.36133
3.142351	23	14.75293	24.95605
3.150377	22	14.75879	25.51953
3.158402	16	14.75977	26.09961
3.166427	24	14.75391	26.78613
3.174453	24	14.74414	27.71777
3.182478	31	14.73047	29.07031
3.190504	30	14.71484	31.05371
3.198529	42	14.69922	33.90039
3.206555	41	14.7002	37.85449
3.21458	40	14.69824	43.10352
3.222605	50	14.69531	49.80176
3.230631	50	14.68848	58.01465
3.238657	68	14.67871	67.69824
3.246682	67	14.66699	78.67188
3.254707	91	14.64844	90.60156
3.262733	118	14.62793	103.0176
3.270758	112	14.60449	115.3242
3.278784	127	14.58105	126.8457
3.286809	140	14.55664	136.8809
3.294835	145	14.52539	144.7666
3.30286	141	14.49121	149.959
3.310885	166	14.45605	152.084
3.318911	160	14.41699	150.9736
3.326936	146	14.37695	146.6992
3.334962	147	14.33301	139.5479
3.342987	134	14.28906	129.999
3.351013	112	14.24414	118.665
3.359038	102	14.22656	106.2529
3.367064	97	14.22656	93.43359
3.375089	72	14.22266	80.80859
3.383114	57	14.21387	68.89355
3.39114	61	14.20117	58.07227
3.399165	42	14.18652	48.59277
3.407191	51	14.16504	40.56055
3.415216	39	14.13867	33.97949
3.423242	29	14.11328	28.7666
3.431267	24	14.10742	24.80273
3.439292	16	14.09863	21.89746
3.447318	22	14.08887	19.88379
3.455343	20	14.07617	18.59961
3.463369	21	14.06055	17.91113
3.471394	22	14.04102	17.70996
3.47942	15	14.02051	17.91699
3.487445	23	13.99805	18.47559
3.495471	26	13.97266	19.34766
3.503496	19	13.94727	20.50781
3.511522	23	13.91992	21.93848
3.519547	20	13.88965	23.62109
3.527572	22	13.8584	25.54102
3.535598	27	13.82324	27.68066
3.543623	39	13.78809	30.02734
3.551649	38	13.75	32.57031
3.559674	46	13.71094	35.31055
3.5677	30	13.67188	38.26172
3.575725	41	13.63184	41.45313
3.58375	55	13.59277	44.92871
3.591776	54	13.58789	48.77344
3.599801	46	13.57813	52.99609
3.607827	72	13.56445	57.62793
3.615852	63	13.54688	62.66699
3.623878	66	13.52637	68.06055
3.631903	67	13.50098	73.68945
3.639929	85	13.47168	79.37598
3.647954	68	13.44336	84.87598
3.655979	80	13.42871	89.91406
3.664005	86	13.41211	94.15723
3.67203	98	13.39453	97.30273
3.680056	117	13.375	99.08496
3.688081	98	13.35254	99.31543
3.696107	110	13.32813	97.90234
3.704132	94	13.30176	94.86816
3.712157	92	13.27441	90.34375
3.720183	85	13.24512	84.55664
3.728208	77	13.21582	77.81152
3.736234	66	13.18555	70.45313
3.744259	82	13.15723	62.83887
3.752285	70	13.12891	55.29785
3.76031	44	13.09961	48.11621
3.768336	45	13.07031	41.51465
3.776361	32	13.03711	35.64063
3.784386	32	13.00293	30.57324
3.792412	17	12.9668	26.33008
3.800437	22	12.93066	22.875
3.808463	20	12.89453	20.13965
3.816488	18	12.87305	18.04785
3.824514	16	12.84668	16.47949
3.832539	15	12.82031	15.34277
3.840564	13	12.7959	14.5498
3.84859	17	12.76758	14.02344
3.856616	18	12.7373	13.7041
3.864641	24	12.7041	13.55078
3.872666	15	12.6709	13.53418
3.880692	19	12.62988	13.63379
3.888717	14	12.58594	13.84473
3.896743	16	12.54199	14.1709
3.904768	16	12.52344	14.6416
3.912794	16	12.50488	15.2334
3.920819	20	12.4834	15.94531
3.928844	16	12.45996	16.77637
3.93687	19	12.42969	17.70703
3.944895	21	12.39453	18.72168
3.952921	12	12.3584	19.79102
3.960946	24	12.32031	20.87793
3.968972	26	12.2832	21.93457
3.976997	15	12.2373	22.90039
3.985023	23	12.18359	23.72461
3.993048	28	12.13086	24.36523
4.001073	28	12.12988	24.83301
4.009099	33	12.12305	25.04199
4.017124	19	12.10156	24.96875
4.02515	24	12.07227	24.62402
4.033175	21	12.04102	24.03418
4.041201	17	11.99902	23.22266
4.049226	22	11.95117	22.24121
4.057251	22	11.9043	21.14551
4.065277	17	11.89746	20.03125
4.073302	26	11.88867	18.90625
4.081328	15	11.86719	17.80371
4.089353	18	11.83887	16.7666
4.097379	9	11.80664	15.82324
4.105404	22	11.7666	14.98633
4.11343	14	11.72266	14.26465
4.121455	18	11.67871	13.66016
4.12948	14	11.64648	13.17383
4.137506	13	11.61328	12.7832
4.145531	16	11.58105	12.47363
4.153557	12	11.54785	12.23145
4.161582	11	11.51465	12.04102
4.169608	7	11.46973	11.87891
4.177633	15	11.4248	11.74707
4.185658	10	11.38281	11.64063
4.193684	18	11.34082	11.5498
4.201709	9	11.27441	11.44727
4.209735	19	11.19531	11.33984
4.217761	12	11.11719	11.24121
4.225786	9	11.16504	11.27441
4.233811	11	11.20117	11.30078
4.241837	7	11.20313	11.29883
4.249862	9	11.18945	11.28613
4.257887	13	11.1748	11.28027
4.265913	10	11.18359	11.30566
4.273939	14	11.17969	11.33008
4.281964	13	11.17578	11.37109
4.289989	12	11.17969	11.44238
4.298015	12	11.1748	11.53906
4.30604	12	11.16016	11.67383
4.314065	18	11.13867	11.87305
4.322091	15	11.11816	12.17285
4.330117	12	11.12207	12.63379
4.338142	13	11.12012	13.27832
4.346168	13	11.10449	14.15723
4.354193	18	11.08301	15.35352
4.362218	15	11.06055	16.95801
4.370244	20	11.05859	19.08594
4.378269	18	11.05078	21.8125
4.386295	26	11.03223	25.22852
4.39432	27	11.00781	29.42871
4.402346	30	10.9834	34.4834
4.410371	26	10.98145	40.44824
4.418396	42	10.97363	47.28027
4.426422	33	10.95508	54.90527
4.434447	67	10.93066	63.19043
4.442473	62	10.90625	71.93945
4.450498	75	10.90723	80.90918
4.458524	94	10.90527	89.74609
4.466549	102	10.89355	98.08301
4.474575	104	10.87695	105.5518
4.4826	132	10.86035	111.8008
4.490625	105	10.84766	116.5205
4.498651	127	10.83105	119.4668
4.506676	127	10.81445	120.5029
4.514702	150	10.79883	119.5996
4.522727	115	10.78125	116.8398
4.530753	129	10.75781	112.415
4.538778	110	10.73242	106.6143
4.546803	89	10.70703	99.79004
4.554829	85	10.69824	92.34375
4.562854	70	10.68945	84.64258
4.57088	76	10.6748	77.03613
4.578905	85	10.65625	69.82227
4.586931	80	10.63477	63.22852
4.594956	66	10.60938	57.39551
4.602982	55	10.58203	52.38477
4.611007	54	10.55469	48.18457
4.619032	45	10.53223	44.72461
4.627058	32	10.50879	41.88574
4.635083	52	10.48535	39.5293
4.643109	43	10.46191	37.51465
4.651134	30	10.44629	35.71777
4.65916	35	10.42773	34.02051
4.667185	32	10.40625	32.3457
4.67521	43	10.37988	30.64648
4.683236	32	10.35156	28.91016
4.691261	19	10.31738	27.14648
4.699287	34	10.2793	25.38867
4.707313	30	10.24219	23.68457
4.715338	21	10.21875	22.09668
4.723363	24	10.19434	20.65723
4.731389	19	10.1709	19.40527
4.739414	15	10.14746	18.37305
4.747439	16	10.12305	17.57422
4.755465	23	10.09473	17.0127
4.763491	14	10.05859	16.68164
4.771516	20	10.02051	16.56934
4.779541	11	9.982422	16.66113
4.787567	15	9.943359	16.93262
4.795592	14	9.894531	17.35645
4.803617	21	9.84668	17.91992
4.811643	17	9.830078	18.6377
4.819669	23	9.80957	19.46289
4.827694	19	9.783203	20.38477
4.83572	24	9.753906	21.39746
4.843745	27	9.72168	22.49609
4.85177	16	9.688477	23.6709
4.859796	33	9.654297	24.90625
4.867821	30	9.618164	26.17871
4.875847	22	9.580078	27.45508
4.883872	45	9.540039	28.69434
4.891898	24	9.499023	29.84863
4.899923	32	9.456055	30.85938
4.907948	39	9.412109	31.67383
4.915974	31	9.367188	32.23926
4.923999	32	9.321289	32.50879
4.932025	30	9.273438	32.45215
4.94005	25	9.224609	32.05371
4.948076	36	9.176758	31.31641
4.956101	30	9.128906	30.26172
4.964127	31	9.081055	28.92871
4.972152	28	9.033203	27.36816
4.980177	22	8.977539	25.63672
4.988203	18	8.919922	23.80566
4.996228	17	8.859375	21.94238
5.004254	22	8.789063	20.10156
5.012279	24	8.712891	18.34277
5.020305	25	8.629883	16.70996
5.02833	17	8.544922	15.23633
5.036355	15	8.460938	13.94629
5.044381	13	8.456055	12.92676
5.052406	21	8.439453	12.08301
5.060432	16	8.421875	11.41797
5.068457	13	8.405273	10.91699
5.076483	14	8.376953	10.54785
5.084508	10	8.349609	10.2998
5.092534	9	8.321289	10.14941
5.100559	11	8.288086	10.07129
5.108584	13	8.25293	10.0459
5.11661	8	8.216797	10.05664
5.124635	5	8.178711	10.08496
5.132661	6	8.129883	10.10938
5.140686	8	8.076172	10.125
5.148712	10	8.019531	10.125
5.156737	15	7.960938	10.10645
5.164762	10	7.897461	10.06738
5.172788	20	7.833008	10.01074
5.180813	15	7.767578	9.942383
5.188839	13	7.699219	9.866211
5.196864	9	7.628906	9.790039
5.20489	13	7.552734	9.720703
5.212915	8	7.466797	9.661133
5.220941	13	7.376953	9.625
5.228966	7	7.28125	9.618164
5.236991	20	7.183594	9.649414
5.245017	9	7.084961	9.727539
5.253042	14	6.984375	9.853516
5.261068	16	6.884766	10.03223
5.269094	10	6.785156	10.26563
5.277119	12	6.813477	10.68457
5.285144	20	6.835938	11.15527
5.293169	15	6.836914	11.66504
5.301195	13	6.827148	12.22461
5.30922	13	6.817383	12.84473
5.317246	28	6.804688	13.52051
5.325272	22	6.783203	14.24023
5.333297	15	6.756836	15.00098
5.341322	13	6.725586	15.78711
5.349348	27	6.691406	16.58203
5.357373	21	6.643555	17.35254
5.365398	15	6.588867	18.07813
5.373424	13	6.530273	18.73242
5.38145	14	6.470703	19.28516
5.389475	15	6.408203	19.70605
5.397501	20	6.34375	19.9707
5.405526	17	6.279297	20.06055
5.413551	21	6.196289	19.94629
5.421576	22	6.105469	19.63672
5.429602	16	6.015625	19.14648
5.437628	15	5.914063	18.48242
5.445653	16	5.803711	17.66797
5.453679	11	5.686523	16.7373
5.461704	18	5.567383	15.72852
5.469729	16	5.449219	14.67871
5.477755	14	5.320313	13.60938
5.48578	12	5.178711	12.54492
5.493806	19	5.038086	11.52539
5.501831	20	5.098633	10.76758
5.509857	14	5.146484	10.06836
5.517882	18	5.170898	9.424805
5.525908	11	5.18457	8.84668
5.533933	8	5.197266	8.34375
5.541958	9	5.209961	7.908203
5.549984	14	5.211914	7.524414
5.558009	9	5.200195	7.179688
5.566035	15	5.181641	6.873047
5.57406	8	5.154297	6.59668
5.582086	4	5.115234	6.339844
5.590111	6	5.069336	6.105469
5.598136	9	5.013672	5.886719
5.606162	10	4.954102	5.68457
5.614187	6	4.894531	5.50293
5.622213	7	4.838867	5.342773
5.630238	8	4.780273	5.200195
5.638264	8	4.689453	5.041992
5.646289	9	4.583984	4.886719
5.654315	7	4.479492	4.750977
5.66234	7	4.373047	4.633789
5.670365	12	4.253906	4.526367
5.678391	14	4.126953	4.436523
5.686416	11	3.994141	4.375
5.694442	6	3.861328	4.352539
5.702467	9	3.708984	4.361328
5.710493	9	3.548828	4.428711
5.718518	9	3.391602	4.583008
5.726543	11	3.458984	5.067383
5.734569	10	3.517578	5.674805
5.742594	7	3.553711	6.419922
5.75062	9	3.578125	7.34375
5.758645	13	3.601563	8.491211
5.766671	14	3.648438	9.916016
5.774696	17	3.682617	11.61035
5.782722	12	3.693359	13.58301
5.790747	19	3.692383	15.85645
5.798772	24	3.680664	18.42578
5.806798	26	3.65625	21.27051
5.814823	27	3.625	24.35547
5.822849	32	3.578125	27.61035
5.830874	30	3.522461	30.96484
5.8389	28	3.467773	34.3291
5.846925	46	3.411133	37.58789
5.85495	36	3.351563	40.62207
5.862976	31	3.261719	43.2832
5.871001	39	3.158203	45.47461
5.879027	37	3.056641	47.11133
5.887053	45	2.945313	48.10254
5.895078	39	2.818359	48.39551
5.903103	46	2.685547	47.97852
5.911129	37	2.551758	46.87109
5.919154	53	2.421875	45.12305
5.92718	49	2.274414	42.78613
5.935205	56	2.121094	39.96777
5.943231	33	1.972656	36.79199
5.951256	33	2.030273	33.57617
5.959281	31	2.083008	30.23145
5.967307	28	2.125	26.8623
5.975332	25	2.162109	23.57422
5.983358	20	2.199219	20.45703
5.991383	28	2.260742	17.59668
5.999409	23	2.3125	15.00488
6.007434	15	2.341797	12.69043
6.01546	22	2.359375	10.67383
6.023485	18	2.363281	8.947266
6.03151	15	2.355469	7.494141
6.039536	22	2.341797	6.294922
6.047561	8	2.318359	5.31543
6.055587	18	2.289063	4.530273
6.063612	24	2.245117	3.904297
6.071638	20	2.188477	3.402344
6.079663	19	2.125	3.026367
6.087688	13	2.040039	2.72168
6.095714	16	1.946289	2.499023
6.103739	16	1.851563	2.366211
6.111765	16	1.737305	2.317383
6.11979	12	1.615234	2.394531
6.127816	27	1.490234	2.65625
6.135841	20	1.367188	3.197266
6.143867	23	1.249023	4.158203
6.151892	23	1.128906	5.737305
6.159917	21	1.006836	8.231445
6.167943	28	0.8916016	12.07031
6.175968	52	0.9238281	17.97852
6.183994	60	0.9580078	26.59668
6.192019	64	1.00293	38.98145
6.200045	75	1.044922	56.46973
6.20807	92	1.087891	80.77246
6.216095	120	1.147461	114.0117
6.224121	182	1.203125	158.6904
6.232146	220	1.235352	217.7295
6.240172	285	1.256836	294.4463
6.248197	374	1.271484	392.4355
6.256223	477	1.279297	515.4121
6.264248	658	1.283203	667.0098
6.272274	814	1.267578	850.4922
6.280299	951	1.242188	1068.464
6.288324	1222	1.217773	1322.488
6.29635	1437	1.191406	1612.706
6.304375	1854	1.157227	1937.499
6.312401	2209	1.09668	2293.204
6.320426	2483	1.024414	2673.988
6.328452	3045	0.9541016	3071.79
6.336477	3497	0.8662109	3476.43
6.344502	3768	0.7695313	3876.018
6.352528	4231	0.671875	4257.433
6.360553	4602	0.5751953	4607.008
6.368579	4934	0.4833984	4911.328
6.376605	5280	0.3896484	5158.063
6.38463	5494	0.3007813	5336.818
6.392655	5485	0.2226563	5439.854
6.400681	5471	0.2314453	5462.693
6.408706	5557	0.2392578	5404.248
6.416731	5353	0.2773438	5267.152
6.424757	5024	0.3125	5057.4
6.432783	4826	0.3496094	4784.006
6.440808	4535	0.3935547	4458.322
6.448833	4208	0.4326172	4093.246
6.456859	3747	0.4599609	3702.398
6.464884	3318	0.4814453	3299.293
6.472909	2833	0.5029297	2896.584
6.480935	2450	0.515625	2505.433
6.488961	2137	0.5253906	2135.095
6.496986	1735	0.515625	1792.639
6.505012	1501	0.4960938	1482.923
6.513037	1153	0.4765625	1208.668
6.521062	943	0.4765625	970.6865
6.529088	706	0.4707031	768.1426
6.537113	567	0.4414063	598.9648
6.545139	439	0.4033203	460.2334
6.553164	336	0.3613281	348.4961
6.56119	231	0.2998047	260.0479
6.569215	179	0.2333984	191.2393
6.57724	125	0.1699219	138.6094
6.585266	101	0.1142578	99.02246
6.593291	74	0.0703125	69.73438
6.601317	62	3.222656E-02	48.41016
6.609342	41	0.0078125	33.13672
6.617368	28	0	22.375
6.625393	46	0	14.90723
6.633419	28	0	9.799805
6.641444	29	0.0078125	6.366211
6.649469	33	2.832031E-02	4.100586
6.657495	27	6.054688E-02	2.636719
6.66552	23	9.765625E-02	1.708008
6.673546	14	0.1376953	1.131836
6.681571	28	0.1728516	0.78125
6.689597	20	0.2060547	0.5742188
6.697622	23	0.2431641	0.4638672
6.705647	25	0.2949219	0.4277344
6.713673	21	0.3476563	0.4267578
6.721698	19	0.3867188	0.4355469
6.729724	19	0.4189453	0.4560547
6.737749	7	0.4482422	0.4755859
6.745775	26	0.4638672	0.5019531
6.7538	17	0.4736328	0.5302734
6.761826	20	0.46875	0.5566406
6.769851	29	0.4541016	0.5927734
6.777876	29	0.4365234	0.6533203
6.785902	15	0.4003906	0.7421875
6.793927	21	0.3583984	0.890625
6.801953	21	0.3193359	1.142578
6.809978	24	0.2841797	1.543945
6.818004	30	0.2480469	2.155273
6.826029	28	0.2060547	3.061523
6.834054	27	0.1640625	4.385742
6.84208	30	0.1279297	6.289063
6.850105	49	0.1289063	9.006836
6.858131	48	0.1308594	12.75098
6.866156	47	0.1884766	17.88867
6.874182	42	0.2490234	24.73828
6.882207	85	0.3173828	33.73926
6.890233	75	0.3837891	45.37012
6.898258	89	0.4472656	60.16797
6.906283	121	0.4990234	78.68652
6.914309	143	0.5449219	101.4961
6.922334	176	0.5927734	129.1318
6.93036	198	0.6640625	162.0635
6.938385	252	0.7333984	200.585
6.946411	291	0.7832031	244.8174
6.954436	338	0.8242188	294.6748
6.962461	397	0.8632813	349.79
6.970487	432	0.8867188	409.4609
6.978512	510	0.9013672	472.6787
6.986538	587	0.8984375	538.0918
6.994564	683	0.8857422	604.0723
7.002589	741	0.8671875	668.749
7.010614	681	0.8271484	730.0742
7.01864	828	0.7773438	785.9707
7.026665	802	0.7304688	834.4189
7.03469	926	0.6904297	873.5781
7.042716	855	0.6455078	901.8818
7.050742	939	0.5917969	918.1738
7.058767	920	0.5341797	921.7842
7.066792	925	0.4804688	912.5664
7.074818	879	0.4863281	890.959
7.082843	876	0.4931641	857.7891
7.090868	800	0.5761719	814.4697
7.098894	742	0.6542969	762.6104
7.10692	695	0.7382813	704.1641
7.114945	674	0.8203125	641.1924
7.122971	538	0.8955078	575.7695
7.130996	503	0.953125	509.8613
7.139021	431	1.000977	445.2559
7.147047	343	1.050781	383.4805
7.155072	325	1.133789	325.7686
7.163098	254	1.210938	272.96
7.171123	236	1.265625	225.584
7.179149	193	1.308594	183.9043
7.187174	142	1.352539	147.9219
7.195199	122	1.383789	117.4033
7.203225	85	1.40625	91.96973
7.21125	66	1.410156	71.125
7.219276	62	1.399414	54.32617
7.227301	44	1.382813	41.01465
7.235327	41	1.344727	30.62109
7.243352	32	1.296875	22.6416
7.251378	18	1.25	16.62207
7.259403	23	1.213867	12.16895
7.267428	9	1.170898	8.922852
7.275454	15	1.116211	6.598633
7.283479	7	1.057617	4.979492
7.291505	5	1	3.898438
7.29953	8	1.013672	3.291992
7.307556	9	1.027344	2.992188
7.315581	5	1.118164	3.004883
7.323606	10	1.199219	3.199219
7.331632	8	1.283203	3.551758
7.339657	9	1.367188	4.040039
7.347683	6	1.444336	4.643555
7.355708	11	1.50293	5.338867
7.363734	4	1.552734	6.125977
7.371759	8	1.602539	7.006836
7.379785	9	1.680664	7.993164
7.38781	12	1.751953	9.036133
7.395835	13	1.801758	10.10156
7.403861	10	1.839844	11.17285
7.411886	15	1.878906	12.24023
7.419912	11	1.916992	13.26953
7.427938	11	1.945313	14.22168
7.435963	16	1.956055	15.05566
7.443988	13	1.951172	15.74805
7.452013	23	1.94043	16.2793
7.460039	17	1.910156	16.61816
7.468064	16	1.870117	16.75977
7.47609	16	1.831055	16.70508
7.484116	17	1.804688	16.46973
7.492141	19	1.770508	16.03906
7.500166	19	1.723633	15.4248
7.508192	11	1.670898	14.65527
7.516217	13	1.619141	13.7627
7.524242	12	1.643555	12.85059
7.532268	10	1.667969	11.87598
7.540294	8	1.746094	10.92188
7.548319	6	1.816406	9.957031
7.556345	11	1.888672	9.014648
7.56437	3	1.963867	8.120117
7.572395	13	2.03418	7.28418
7.58042	8	2.087891	6.504883
7.588446	10	2.132813	5.800781
7.596472	8	2.178711	5.18457
7.604497	9	2.240234	4.671875
7.612523	9	2.295898	4.236328
7.620548	6	2.335938	3.864258
7.628573	3	2.366211	3.554688
7.636599	4	2.397461	3.308594
7.644624	4	2.436523	3.126953
7.65265	2	2.466797	2.982422
7.660675	5	2.478516	2.858398
7.668701	5	2.480469	2.757813
7.676726	12	2.478516	2.678711
7.684752	7	2.459961	2.602539
7.692777	3	2.433594	2.533203
7.700802	6	2.40625	2.476563
7.708828	3	2.395508	2.444336
7.716853	10	2.376953	2.411133
7.724879	9	2.345703	2.370117
7.732904	11	2.308594	2.327148
7.74093	4	2.271484	2.287109
7.748955	4	2.307617	2.322266
7.75698	4	2.344727	2.359375
7.765006	2	2.405273	2.420898
7.773031	4	2.461914	2.481445
7.781057	5	2.519531	2.544922
7.789082	5	2.584961	2.619141
7.797108	5	2.645508	2.692383
7.805133	4	2.693359	2.757813
7.813159	6	2.736328	2.824219
7.821184	4	2.779297	2.900391
7.829209	2	2.829102	2.994141
7.837235	7	2.873047	3.095703
7.84526	9	2.90625	3.205078
7.853286	4	2.933594	3.333008
7.861311	7	2.961914	3.487305
7.869337	4	2.996094	3.681641
7.877362	7	3.023438	3.907227
7.885387	1	3.036133	4.163086
7.893413	5	3.040039	4.460938
7.901438	7	3.043945	4.813477
7.909464	6	3.033203	5.209961
7.917489	10	3.014648	5.660156
7.925515	6	2.995117	6.173828
7.93354	9	2.991211	6.762695
7.941566	10	2.980469	7.40332
7.949591	6	2.957031	8.079102
7.957616	12	2.927734	8.789063
7.965642	7	2.898438	9.524414
7.973667	13	2.945313	10.34668
7.981693	11	2.991211	11.1582
7.989718	11	3.035156	11.94141
7.997744	19	3.079102	12.67383
8.005769	15	3.124023	13.33789
8.013795	19	3.182617	13.92969
8.02182	15	3.236328	14.41113
8.029845	20	3.280273	14.76465
8.037871	15	3.318359	14.9873
8.045897	12	3.357422	15.0791
8.053922	18	3.395508	15.04004
8.061947	8	3.427734	14.87109
8.069973	12	3.453125	14.58203
8.077998	14	3.476563	14.18848
8.086023	14	3.499023	13.71289
8.094049	15	3.527344	13.18066
8.102075	10	3.549805	12.59863
8.1101	12	3.55957	11.98242
8.118125	15	3.563477	11.3584
8.126151	13	3.567383	10.75195
8.134176	13	3.55957	10.16504
8.142201	9	3.544922	9.615234
8.150228	8	3.530273	9.120117
8.158253	8	3.52832	8.696289
8.166278	7	3.521484	8.331055
8.174303	9	3.50293	8.013672
8.182329	8	3.478516	7.749023
8.190354	4	3.453125	7.536133
8.19838	7	3.501953	7.442383
8.206406	7	3.544922	7.378906
8.214431	9	3.583008	7.336914
8.222456	10	3.618164	7.310547
8.230481	10	3.654297	7.293945
8.238507	7	3.703125	7.290039
8.246532	5	3.748047	7.276367
8.254558	5	3.78418	7.240234
8.262584	5	3.817383	7.18457
8.270609	7	3.849609	7.108398
8.278634	4	3.875977	7.005859
8.286659	7	3.898438	6.87793
8.294685	7	3.917969	6.730469
8.302711	9	3.9375	6.564453
8.310736	8	3.956055	6.387695
8.318762	9	3.976563	6.204102
8.326787	6	3.991211	6.010742
8.334812	7	3.99707	5.811523
8.342837	7	3.999023	5.615234
8.350863	5	4	5.429688
8.358889	7	3.995117	5.254883
8.366914	7	3.983398	5.092773
8.37494	11	3.970703	4.957031
8.382965	11	3.970703	4.863281
8.39099	6	3.96582	4.800781
8.399015	7	3.949219	4.767578
8.407042	4	3.926758	4.777344
8.415067	7	3.905273	4.844727
8.423092	4	3.949219	5.043945
8.431118	10	3.989258	5.316406
8.439143	7	4.019531	5.670898
8.447168	9	4.044922	6.125977
8.455194	2	4.071289	6.704102
8.46322	13	4.109375	7.432617
8.471245	7	4.143555	8.314453
8.47927	9	4.172852	9.362305
8.487296	6	4.198242	10.59473
8.495321	16	4.223633	12.02441
8.503346	11	4.241211	13.65137
8.511372	12	4.254883	15.48047
8.519398	17	4.267578	17.50684
8.527423	19	4.282227	19.7168
8.535448	22	4.296875	22.08496
8.543474	23	4.311523	24.5752
8.551499	28	4.320313	27.13965
8.559525	37	4.323242	29.72266
8.56755	33	4.323242	32.26758
8.575576	34	4.322266	34.71289
8.583601	29	4.319336	36.98633
8.591626	46	4.308594	39.01855
8.599652	41	4.297852	40.75293
8.607677	53	4.297852	42.14258
8.615703	38	4.293945	43.12793
8.623728	40	4.279297	43.66699
8.631754	47	4.258789	43.74805
8.639779	48	4.238281	43.37207
8.647804	45	4.276367	42.61133
8.65583	47	4.3125	41.43164
8.663856	45	4.333984	39.86426
8.671881	40	4.349609	37.96777
8.679906	41	4.365234	35.81055
8.687932	30	4.391602	33.46875
8.695957	29	4.414063	30.99805
8.703982	30	4.433594	28.46484
8.712008	36	4.450195	25.93359
8.720034	22	4.46582	23.46191
8.728059	19	4.476563	21.09668
8.736084	25	4.486328	18.87793
8.74411	16	4.494141	16.83789
8.752135	13	4.500977	14.99609
8.76016	13	4.507813	13.36328
8.768187	8	4.512695	11.94043
8.776212	11	4.515625	10.72559
8.784237	11	4.514648	9.703125
8.792262	3	4.511719	8.863281
8.800288	8	4.507813	8.189453
8.808313	8	4.506836	7.664063
8.816339	8	4.500977	7.261719
8.824365	3	4.495117	6.966797
8.83239	7	4.492188	6.762695
8.840415	9	4.490234	6.62793
8.84844	11	4.480469	6.540039
8.856466	4	4.466797	6.486328
8.864491	7	4.452148	6.458008
8.872517	10	4.467773	6.473633
8.880543	5	4.478516	6.489258
8.888568	7	4.476563	6.490234
8.896593	3	4.469727	6.477539
8.904618	8	4.462891	6.453125
8.912644	9	4.475586	6.432617
8.92067	1	4.485352	6.393555
8.928695	8	4.484375	6.326172
8.936721	10	4.478516	6.239258
8.944746	4	4.472656	6.137695
8.952771	5	4.475586	6.035156
8.960796	12	4.479492	5.922852
8.968822	7	4.481445	5.804688
8.976848	5	4.480469	5.681641
8.984873	5	4.474609	5.553711
8.992899	6	4.464844	5.425781
9.000924	3	4.453125	5.301758
9.008949	3	4.431641	5.175781
9.016974	5	4.404297	5.054688
9.025001	2	4.374023	4.939453
9.033026	1	4.34082	4.834961
9.041051	5	4.307617	4.742188
9.049077	7	4.34375	4.730469
9.057102	4	4.37207	4.722656
9.065127	6	4.394531	4.719727
9.073153	7	4.404297	4.713867
9.081179	12	4.407227	4.710938
9.089204	4	4.40625	4.710938
9.097229	4	4.40332	4.71582
9.105255	6	4.400391	4.726563
9.11328	5	4.419922	4.763672
9.121305	8	4.436523	4.799805
9.129331	5	4.446289	4.829102
9.137357	10	4.451172	4.855469
9.145382	13	4.456055	4.879883
9.153407	12	4.459961	4.901367
9.161433	12	4.464844	4.919922
9.169458	9	4.464844	4.929688
9.177484	13	4.461914	4.932617
9.185509	16	4.456055	4.926758
9.193535	10	4.447266	4.913086
9.20156	7	4.438477	4.894531
9.209585	12	4.429688	4.87207
9.217611	8	4.416016	4.839844
9.225636	14	4.40332	4.804688
9.233662	16	4.392578	4.768555
9.241687	6	4.375977	4.724609
9.249713	5	4.351563	4.671875
9.257738	15	4.323242	4.614258
9.265763	13	4.295898	4.556641
9.273789	14	4.332031	4.564453
9.281815	19	4.358398	4.564453
9.28984	11	4.378906	4.560547
9.297865	15	4.386719	4.547852
9.305891	16	4.388672	4.532227
9.313916	6	4.385742	4.516602
9.321941	14	4.381836	4.504883
9.329967	11	4.376953	4.499023
9.337993	12	4.395508	4.522461
9.346018	9	4.40918	4.549805
9.354043	6	4.417969	4.582031
9.362069	5	4.422852	4.62207
9.370094	5	4.426758	4.673828
9.378119	5	4.429688	4.740234
9.386146	6	4.431641	4.824219
9.394171	9	4.430664	4.924805
9.402196	7	4.427734	5.047852
9.410221	7	4.421875	5.194336
9.418247	3	4.415039	5.368164
9.426272	2	4.408203	5.572266
9.434298	8	4.402344	5.80957
9.442324	9	4.391602	6.075195
9.450349	3	4.380859	6.375
9.458374	12	4.370117	6.705078
9.466399	12	4.356445	7.0625
9.474425	6	4.334961	7.436523
9.48245	6	4.30957	7.826172
9.490476	6	4.283203	8.228516
9.498502	11	4.311523	8.689453
9.506527	8	4.333984	9.140625
9.514552	9	4.349609	9.569336
9.522577	10	4.355469	9.963867
9.530603	16	4.356445	10.31934
9.538629	10	4.353516	10.625
9.546654	11	4.348633	10.875
9.55468	8	4.34375	11.06445
9.562705	11	4.356445	11.20605
9.57073	17	4.367188	11.27539
9.578755	9	4.375	11.27246
9.586782	10	4.379883	11.19629
9.594807	9	4.382813	11.05371
9.602832	15	4.384766	10.84961
9.610858	5	4.384766	10.59082
9.618883	7	4.381836	10.28516
9.626908	11	4.378906	9.943359
9.634933	4	4.374023	9.575195
9.64296	9	4.368164	9.19043
9.650985	8	4.362305	8.798828
9.65901	8	4.354492	8.407227
9.667036	4	4.345703	8.022461
9.675061	2	4.336914	7.65332
9.683086	12	4.327148	7.303711
9.691112	10	4.318359	6.977539
9.699138	8	4.305664	6.670898
9.707163	6	4.288086	6.385742
9.715188	10	4.271484	6.126953
9.723214	10	4.286133	5.923828
9.731239	9	4.298828	5.741211
9.739264	9	4.305664	5.574219
9.74729	7	4.308594	5.422852
9.755316	5	4.308594	5.285156
9.763341	9	4.307617	5.161133
9.771366	4	4.305664	5.050781
9.779392	7	4.308594	4.957031
9.787417	9	4.311523	4.874023
9.795443	3	4.314453	4.799805
9.803468	7	4.313477	4.730469
9.811494	6	4.311523	4.667969
9.819519	4	4.307617	4.611328
9.827544	6	4.303711	4.55957
9.83557	5	4.298828	4.514648
9.843596	3	4.294922	4.474609
9.851621	8	4.289063	4.439453
9.859646	7	4.28418	4.40918
9.867672	1	4.279297	4.383789
9.875697	5	4.27832	4.365234
9.883722	3	4.275391	4.350586
9.891748	7	4.269531	4.335938
9.899774	2	4.259766	4.320313
9.907799	7	4.246094	4.304688
9.915824	7	4.230469	4.289063
9.92385	2	4.211914	4.274414
9.931875	4	4.194336	4.262695
9.9399	3	4.210938	4.289063
9.947927	4	4.226563	4.316406
9.955952	3	4.240234	4.344727
9.963977	4	4.245117	4.367188
9.972002	4	4.246094	4.386719
9.980028	9	4.244141	4.40625
9.988053	4	4.240234	4.425781
9.996078	5	4.237305	4.447266
10.0041	4	4.253906	4.488281
10.01213	3	4.268555	4.529297
10.02015	3	4.277344	4.564453
10.02818	6	4.282227	4.594727
10.03621	6	4.285156	4.62207
10.04423	8	4.285156	4.644531
10.05226	3	4.283203	4.662109
10.06028	3	4.28125	4.676758
10.06831	4	4.286133	4.695313
10.07633	6	4.291016	4.709961
10.08436	6	4.296875	4.720703
10.09238	7	4.301758	4.727539
10.10041	5	4.305664	4.727539
10.10843	5	4.307617	4.72168
10.11646	5	4.30957	4.712891
10.12449	7	4.310547	4.698242
10.13251	4	4.310547	4.679688
10.14054	2	4.306641	4.654297
10.14856	4	4.300781	4.625977
10.15659	4	4.294922	4.595703
10.16461	5	4.305664	4.582031
10.17264	3	4.313477	4.566406
10.18066	8	4.319336	4.548828
10.18869	8	4.324219	4.53125
10.19671	8	4.328125	4.515625
10.20474	9	4.332031	4.501953
10.21277	9	4.334961	4.491211
10.22079	5	4.336914	4.484375
10.22882	6	4.337891	4.479492
10.23684	6	4.335938	4.479492
10.24487	7	4.333984	4.483398
10.25289	2	4.331055	4.494141
10.26092	12	4.328125	4.512695
10.26894	3	4.326172	4.540039
10.27697	5	4.320313	4.576172
10.285	7	4.314453	4.625
10.29302	6	4.313477	4.691406
10.30105	11	4.311523	4.774414
10.30907	3	4.303711	4.87207
10.3171	7	4.292969	4.988281
10.32512	11	4.282227	5.131836
10.33315	12	4.294922	5.328125
10.34117	8	4.305664	5.557617
10.3492	2	4.308594	5.817383
10.35722	9	4.308594	6.116211
10.36525	9	4.307617	6.461914
10.37327	9	4.308594	6.860352
10.3813	5	4.306641	7.310547
10.38933	3	4.304688	7.818359
10.39735	2	4.30957	8.392578
10.40538	11	4.313477	9.025391
10.4134	7	4.31543	9.714844
10.42143	10	4.31543	10.45898
10.42945	10	4.314453	11.25293
10.43748	13	4.313477	12.08984
10.4455	13	4.3125	12.95898
10.45353	13	4.30957	13.84961
10.46155	16	4.307617	14.74707
10.46958	16	4.302734	15.63379
10.4776	16	4.296875	16.49316
10.48563	19	4.291016	17.30566
10.49366	18	4.282227	18.05273
10.50168	24	4.272461	18.71387
10.50971	19	4.261719	19.27441
10.51773	23	4.250977	19.7168
10.52576	15	4.240234	20.03027
10.53378	20	4.225586	20.2002
10.54181	20	4.207031	20.21973
10.54983	27	4.188477	20.0918
10.55786	20	4.207031	19.85547
10.56589	30	4.223633	19.47656
10.57391	14	4.230469	18.95801
10.58194	17	4.233398	18.31934
10.58996	21	4.236328	17.58105
10.59799	9	4.235352	16.75684
10.60601	14	4.231445	15.86816
10.61404	15	4.227539	14.93848
10.62206	17	4.234375	13.99805
10.63009	14	4.241211	13.05566
10.63811	16	4.242188	12.12402
10.64614	9	4.241211	11.21973
10.65417	14	4.238281	10.35742
10.66219	16	4.234375	9.547852
10.67022	14	4.229492	8.800781
10.67824	17	4.229492	8.124023
10.68627	8	4.228516	7.516602
10.69429	5	4.22168	6.97168
10.70232	8	4.210938	6.492188
10.71034	9	4.201172	6.077148
10.71837	8	4.196289	5.729492
10.72639	5	4.19043	5.4375
10.73442	5	4.179688	5.19043
10.74244	4	4.166992	4.987305
10.75047	4	4.154297	4.823242
10.7585	3	4.135742	4.688477
10.76652	12	4.115234	4.581055
10.77455	3	4.094727	4.498047
10.78257	2	4.114258	4.477539
10.7906	6	4.132813	4.47168
10.79862	4	4.141602	4.470703
10.80665	8	4.145508	4.475586
10.81467	6	4.149414	4.490234
10.8227	2	4.150391	4.507813
10.83072	1	4.147461	4.526367
10.83875	6	4.144531	4.547852
10.84678	3	4.149414	4.579102
10.8548	5	4.155273	4.610352
10.86283	12	4.157227	4.635742
10.87085	3	4.15625	4.658203
10.87888	7	4.152344	4.672852
10.8869	9	4.146484	4.682617
10.89493	5	4.141602	4.6875
10.90295	7	4.138672	4.691406
10.91098	8	4.134766	4.6875
10.919	14	4.123047	4.670898
10.92703	7	4.106445	4.644531
10.93506	6	4.089844	4.613281
10.94308	4	4.089844	4.59375
10.95111	3	4.089844	4.570313
10.95913	6	4.081055	4.536133
10.96716	8	4.069336	4.495117
10.97518	7	4.053711	4.447266
10.98321	5	4.035156	4.397461
10.99123	6	4.017578	4.345703
10.99926	5	4.001953	4.297852
11.00728	11	4.021484	4.285156
11.01531	5	4.041016	4.273438
11.02334	4	4.052734	4.255859
11.03136	7	4.060547	4.237305
11.03939	4	4.067383	4.217773
11.04741	5	4.072266	4.200195
11.05544	4	4.076172	4.183594
11.06346	5	4.074219	4.165039
11.07149	6	4.070313	4.144531
11.07951	10	4.063477	4.125
11.08754	7	4.056641	4.106445
11.09556	5	4.048828	4.089844
11.10359	5	4.049805	4.083984
11.11162	3	4.049805	4.077148
11.11964	6	4.045898	4.069336
11.12767	8	4.040039	4.05957
11.13569	5	4.03125	4.049805
11.14372	10	4.015625	4.033203
11.15174	3	3.99707	4.015625
11.15977	5	3.979492	3.998047
11.16779	5	3.980469	4.001953
11.17582	4	3.981445	4.005859
11.18384	1	3.973633	4.00293
11.19187	5	3.960938	3.995117
11.19989	6	3.943359	3.982422
11.20792	5	3.921875	3.96875
11.21595	5	3.900391	3.955078
11.22397	1	3.910156	3.972656
11.232	4	3.927734	4
11.24002	6	3.944336	4.027344
11.24805	2	3.954102	4.047852
11.25607	6	3.961914	4.06543
11.2641	12	3.96582	4.082031
11.27212	4	3.969727	4.095703
11.28015	4	3.97168	4.110352
11.28817	5	3.96875	4.117188
11.2962	6	3.962891	4.12207
11.30423	5	3.951172	4.119141
11.31225	4	3.935547	4.112305
11.32028	2	3.920898	4.103516
11.3283	8	3.928711	4.116211
11.33633	7	3.935547	4.126953
11.34435	5	3.936523	4.129883
11.35238	5	3.929688	4.123047
11.3604	3	3.919922	4.112305
11.36843	4	3.905273	4.09375
11.37646	5	3.887695	4.071289
11.38448	4	3.870117	4.047852
11.39251	4	3.871094	4.041992
11.40053	6	3.87207	4.035156
11.40856	5	3.866211	4.020508
11.41658	4	3.856445	4.000977
11.42461	3	3.835938	3.97168
11.43263	6	3.810547	3.938477
11.44066	3	3.785156	3.905273
11.44868	1	3.819336	3.930664
11.45671	5	3.866211	3.972656
11.46474	6	3.912109	4.013672
11.47276	1	3.953125	4.051758
11.48079	4	3.991211	4.087891
11.48881	6	4.025391	4.12207
11.49684	4	4.056641	4.15625
11.50486	5	4.087891	4.192383
11.51289	3	4.114258	4.226563
11.52091	6	4.140625	4.261719
11.52894	10	4.160156	4.293945
11.53696	2	4.177734	4.326172
11.54499	3	4.195313	4.361328
11.55301	8	4.227539	4.413086
11.56104	8	4.259766	4.46875
11.56907	6	4.285156	4.519531
11.57709	2	4.306641	4.569336
11.58512	6	4.321289	4.614258
11.59314	3	4.333008	4.658203
11.60117	6	4.34375	4.705078
11.60919	2	4.380859	4.77832
11.61722	6	4.415039	4.850586
11.62524	2	4.44043	4.914063
11.63327	4	4.458008	4.97168
11.64129	10	4.472656	5.023438
11.64932	7	4.478516	5.067383
11.65735	7	4.480469	5.104492
11.66537	8	4.482422	5.139648
11.6734	9	4.53125	5.21875
11.68142	4	4.574219	5.287109
11.68945	12	4.609375	5.342773
11.69747	6	4.639648	5.389648
11.7055	7	4.666016	5.425781
11.71352	3	4.689453	5.453125
11.72155	9	4.711914	5.473633
11.72957	2	4.731445	5.485352
11.7376	4	4.75	5.490234
11.74563	4	4.762695	5.483398
11.75365	9	4.772461	5.46875
11.76168	8	4.783203	5.449219
11.7697	3	4.817383	5.450195
11.77773	8	4.848633	5.445313
11.78575	7	4.876953	5.43457
11.79378	12	4.901367	5.417969
11.8018	8	4.922852	5.398438
11.80983	5	4.943359	5.376953
11.81785	7	4.961914	5.355469
11.82588	8	4.981445	5.334961
11.83391	5	5.007813	5.323242
11.84193	4	5.030273	5.310547
11.84996	3	5.051758	5.297852
11.85798	6	5.072266	5.287109
11.86601	6	5.089844	5.277344
11.87403	6	5.107422	5.269531
11.88206	8	5.124023	5.263672
11.89008	7	5.139648	5.259766
11.89811	10	5.154297	5.257813
11.90613	5	5.170898	5.259766
11.91416	3	5.186523	5.263672
11.92218	6	5.197266	5.264648
11.93021	6	5.207031	5.265625
11.93824	5	5.21582	5.268555
11.94626	3	5.234375	5.282227
11.95429	9	5.25	5.296875
11.96231	4	5.264648	5.30957
11.97034	11	5.271484	5.317383
11.97836	6	5.275391	5.322266
11.98639	4	5.276367	5.327148
11.99441	5	5.276367	5.332031
12.00244	7	5.276367	5.336914
12.01046	7	5.311523	5.379883
12.01849	6	5.34668	5.422852
12.02652	2	5.37793	5.462891
12.03454	5	5.398438	5.494141
12.04257	5	5.414063	5.521484
12.05059	6	5.425781	5.544922
12.05862	6	5.43457	5.566406
12.06664	6	5.443359	5.588867
12.07467	4	5.539063	5.698242
12.08269	6	5.62793	5.802734
12.09072	2	5.698242	5.888672
12.09874	9	5.760742	5.966797
12.10677	8	5.823242	6.045898
12.1148	9	5.892578	6.131836
12.12282	6	5.955078	6.211914
12.13085	7	6.017578	6.292969
12.13887	4	6.097656	6.391602
12.1469	11	6.175781	6.489258
12.15492	6	6.246094	6.580078
12.16295	7	6.3125	6.668945
12.17097	4	6.379883	6.758789
12.179	11	6.454102	6.857422
12.18702	8	6.525391	6.955078
12.19505	6	6.59668	7.051758
12.20308	8	6.663086	7.146484
12.2111	10	6.728516	7.240234
12.21913	7	6.792969	7.333984
12.22715	16	6.856445	7.426758
12.23518	6	6.920898	7.520508
12.2432	13	6.985352	7.612305
12.25123	9	7.049805	7.704102
12.25925	6	7.110352	7.789063
12.26728	10	7.167969	7.869141
12.2753	9	7.226563	7.946289
12.28333	14	7.296875	8.033203
12.29136	5	7.364258	8.112305
12.29938	11	7.427734	8.18457
12.30741	8	7.490234	8.251953
12.31543	8	7.552734	8.31543
12.32346	11	7.609375	8.37207
12.33148	10	7.663086	8.422852
12.33951	8	7.717773	8.474609
12.34753	13	7.791992	8.547852
12.35556	12	7.864258	8.620117
12.36358	10	7.935547	8.699219
12.37161	7	8.004883	8.782227
12.37963	4	8.071289	8.873047
12.38766	9	8.136719	8.976563
12.39569	3	8.202148	9.09668
12.40371	8	8.266602	9.236328
12.41174	13	8.327148	9.397461
12.41976	9	8.386719	9.584961
12.42779	9	8.446289	9.803711
12.43581	12	8.506836	10.05762
12.44384	9	8.567383	10.35059
12.45186	10	8.62793	10.68457
12.45989	19	8.692383	11.06641
12.46791	8	8.756836	11.49219
12.47594	11	8.821289	11.96289
12.48397	15	8.884766	12.47754
12.49199	12	8.948242	13.0332
12.50002	13	9.010742	13.62891
12.50804	14	9.074219	14.26074
12.51607	17	9.134766	14.9209
12.52409	10	9.195313	15.60254
12.53212	13	9.254883	16.2998
12.54014	6	9.314453	17.00586
12.54817	20	9.370117	17.70703
12.5562	18	9.421875	18.39453
12.56422	15	9.473633	19.06543
12.57225	19	9.549805	19.73535
12.58027	22	9.62207	20.37012
12.5883	26	9.693359	20.96973
12.59632	21	9.760742	21.52441
12.60435	19	9.825195	22.03809
12.61237	21	9.885742	22.50977
12.6204	29	9.944336	22.94238
12.62842	26	10.00293	23.3457
12.63645	22	10.05859	23.72266
12.64447	20	10.11328	24.08008
12.6525	34	10.16016	24.42383
12.66053	30	10.20313	24.76367
12.66855	30	10.24707	25.1123
12.67658	21	10.33301	25.51855
12.6846	30	10.41406	25.93848
12.69263	39	10.49023	26.37598
12.70065	30	10.55762	26.82715
12.70868	26	10.62109	27.29297
12.7167	31	10.68262	27.76855
12.72473	19	10.74121	28.24805
12.73275	22	10.80078	28.7207
12.74078	39	10.87305	29.18457
12.74881	24	10.94434	29.61426
12.75683	31	11.01465	29.99219
12.76486	31	11.08398	30.30176
12.77288	20	11.14746	30.52734
12.78091	27	11.20996	30.65625
12.78893	29	11.27246	30.68164
12.79696	29	11.33594	30.5957
12.80498	36	11.39746	30.38965
12.81301	30	11.45605	30.0625
12.82103	32	11.5127	29.61719
12.82906	25	11.56934	29.06152
12.83709	33	11.62402	28.40234
12.84511	32	11.67383	27.64941
12.85314	33	11.72461	26.82227
12.86116	32	11.77441	25.93359
12.86919	34	11.82324	25.00293
12.87721	28	11.86133	24.03516
12.88524	22	11.89258	23.05273
12.89326	25	11.9248	22.0791
12.90129	21	12.02441	21.19531
12.90931	25	12.11328	20.33594
12.91734	20	12.19336	19.51367
12.92537	27	12.26172	18.73535
12.93339	29	12.3252	18.01367
12.94142	26	12.38477	17.35254
12.94944	27	12.44141	16.75879
12.95747	26	12.49805	16.2334
12.96549	34	12.57813	15.79785
12.97352	27	12.65234	15.42285
12.98154	23	12.72363	15.1084
12.98957	29	12.79395	14.85156
12.99759	28	12.86133	14.64844
13.00562	24	12.92871	14.49805
13.01365	22	12.99316	14.39551
13.02167	22	13.05566	14.34082
13.0297	32	13.11621	14.33496
13.03772	18	13.17285	14.375
13.04575	16	13.22559	14.46973
13.05377	23	13.2793	14.62695
13.0618	22	13.33008	14.85449
13.06982	19	13.375	15.16113
13.07785	14	13.41602	15.56738
13.08587	25	13.45605	16.09473
13.0939	21	13.49609	16.76953
13.10192	22	13.53613	17.62012
13.10995	19	13.5625	18.6709
13.11798	30	13.58887	19.97168
13.126	27	13.69531	21.64551
13.13403	30	13.79199	23.65234
13.14205	36	13.875	26.04199
13.15008	29	13.94824	28.87012
13.1581	34	14.01563	32.20117
13.16613	32	14.07617	36.09277
13.17415	36	14.13379	40.60547
13.18218	60	14.19141	45.7959
13.1902	50	14.27441	51.74219
13.19823	50	14.35156	58.45117
13.20626	71	14.42578	65.95996
13.21428	77	14.49805	74.28516
13.22231	83	14.56641	83.42969
13.23033	96	14.63379	93.37891
13.23836	96	14.69727	104.0928
13.24638	94	14.75977	115.5137
13.25441	117	14.82227	127.5596
13.26243	131	14.87988	140.1182
13.27046	159	14.93457	153.0596
13.27848	159	14.98828	166.2295
13.28651	187	15.0332	179.4453
13.29454	187	15.07422	192.5205
13.30256	185	15.10938	205.248
13.31059	220	15.14258	217.416
13.31861	277	15.17578	228.8125
13.32664	227	15.21484	239.2305
13.33466	242	15.23633	248.4463
13.34269	239	15.25879	256.291
13.35071	267	15.37598	262.6982
13.35874	281	15.4834	267.4297
13.36676	258	15.57227	270.375
13.37479	269	15.65137	271.4785
13.38282	293	15.72461	270.7207
13.39084	279	15.79004	268.1133
13.39887	272	15.84961	263.7139
13.40689	249	15.90918	257.6201
13.41492	253	16	249.9912
13.42294	266	16.08301	240.9473
13.43097	243	16.16309	230.6738
13.43899	209	16.24121	219.375
13.44702	210	16.31152	207.2588
13.45504	191	16.37793	194.5498
13.46307	181	16.44238	181.4678
13.4711	188	16.50586	168.2266
13.47912	138	16.56934	155.0264
13.48715	151	16.62695	142.0439
13.49517	117	16.67969	129.4434
13.5032	100	16.73242	117.3662
13.51122	101	16.77539	105.918
13.51925	112	16.81348	95.18945
13.52727	93	16.8457	85.24219
13.5353	82	16.875	76.11816
13.54332	69	16.90332	67.83691
13.55135	54	16.93848	60.40137
13.55937	46	16.9541	53.76465
13.5674	54	16.96875	47.91406
13.57543	60	17.10156	42.92188
13.58345	48	17.22266	38.60645
13.59148	50	17.31934	34.89844
13.5995	46	17.4043	31.74707
13.60753	41	17.48926	29.10449
13.61555	16	17.56055	26.89746
13.62358	27	17.62598	25.07617
13.6316	23	17.69141	23.5918
13.63963	17	17.79004	22.42969
13.64766	21	17.88281	21.50293
13.65568	18	17.96875	20.77344
13.66371	18	18.05176	20.20898
13.67173	17	18.12598	19.77441
13.67976	30	18.19629	19.44629
13.68778	25	18.26367	19.20605
13.69581	32	18.33105	19.03711
13.70383	21	18.39844	18.92578
13.71186	21	18.45605	18.85059
13.71988	23	18.50781	18.80371
13.72791	17	18.55957	18.78613
13.73594	10	18.60352	18.7832
13.74396	18	18.64063	18.79199
13.75199	22	18.66992	18.81055
13.76001	19	18.69727	18.84082
13.76804	16	18.72363	18.88574
13.77606	17	18.75293	18.9502
13.78409	27	18.76172	19.0127
13.79211	10	18.77051	19.09863
13.80014	23	18.94238	19.375
13.80816	25	19.09375	19.66504
13.81619	22	19.22559	19.97852
13.82421	23	19.34863	20.33496
13.83224	19	19.46875	20.75488
13.84027	29	19.58105	21.24902
13.84829	24	19.68945	21.83691
13.85632	21	19.7959	22.54297
13.86434	25	19.89844	23.38672
13.87237	25	19.99805	24.39844
13.88039	24	20.09766	25.61035
13.88842	36	20.19727	27.05469
13.89644	36	20.29102	28.76074
13.90447	31	20.38086	30.77051
13.91249	36	20.46875	33.125
13.92052	48	20.55566	35.86719
13.92855	33	20.64355	39.03809
13.93657	36	20.72852	42.67578
13.9446	33	20.80957	46.81445
13.95262	54	20.88965	51.49121
13.96065	54	20.97754	56.74219
13.96867	75	21.05762	62.56934
13.9767	80	21.13281	68.98828
13.98472	68	21.20605	76
13.99275	87	21.2793	83.59082
14.00077	79	21.33789	91.71875
14.0088	113	21.38379	100.3418
14.01683	119	21.42969	109.4141
14.02485	114	21.56543	118.9463
14.03288	145	21.68555	128.7422
14.0409	152	21.80762	138.709
14.04893	143	21.92969	148.7246
14.05695	162	22.04297	158.6455
14.06498	176	22.15625	168.3369
14.073	152	22.26172	177.6406
14.08103	188	22.3623	186.4092
14.08905	214	22.4541	194.4873
14.09708	198	22.54102	201.7344
14.10511	180	22.62891	208.0215
14.11313	211	22.71582	213.2256
14.12116	209	22.79199	217.2344
14.12918	197	22.86816	219.9785
14.13721	222	22.97656	221.4307
14.14523	214	23.08203	221.5254
14.15326	215	23.18066	220.2559
14.16128	227	23.27637	217.6484
14.16931	226	23.36328	213.749
14.17733	212	23.44629	208.6387
14.18536	198	23.52637	202.417
14.19339	192	23.60547	195.207
14.20141	178	23.68555	187.1436
14.20944	176	23.75586	178.3652
14.21746	178	23.81445	169.0244
14.22549	146	23.87305	159.292
14.23351	132	24.0166	149.4092
14.24154	158	24.15137	139.4346
14.24956	152	24.25879	129.4902
14.25759	123	24.35156	119.7197
14.26561	115	24.44531	110.252
14.27364	104	24.52734	101.1758
14.28166	109	24.59863	92.57031
14.28969	100	24.66992	84.50879
14.29772	78	24.80273	77.09961
14.30574	86	24.93457	70.30566
14.31377	67	25.04102	64.11621
14.32179	75	25.13574	58.54102
14.32982	47	25.23047	53.5791
14.33784	76	25.31934	49.2002
14.34587	39	25.39941	45.36816
14.35389	54	25.48047	42.05371
14.36192	33	25.57617	39.23047
14.36994	35	25.67285	36.83887
14.37797	29	25.76953	34.83301
14.386	32	25.86621	33.16895
14.39402	37	25.94336	31.7832
14.40205	33	26.00781	30.64355
14.41007	26	26.07227	29.72559
14.4181	31	26.16699	29.02539
14.42612	19	26.25488	28.47559
14.43415	20	26.30078	28.01367
14.44217	29	26.3252	27.63672
14.4502	27	26.34961	27.34863
14.45822	32	26.53125	27.28809
14.46625	30	26.71387	27.28516
14.47428	32	26.84863	27.28027
14.4823	26	26.95996	27.28809
14.49033	33	27.0498	27.30273
14.49835	24	27.12793	27.32813
14.50638	36	27.20605	27.37207
14.5144	26	27.42871	27.57422
14.52243	25	27.63867	27.77637
14.53045	40	27.81641	27.95801
14.53848	17	27.96387	28.11914
14.5465	26	28.0957	28.27539
14.55453	30	28.20703	28.4209
14.56256	25	28.30762	28.56641
14.57058	27	28.4082	28.72559
14.57861	28	28.63379	29.02344
14.58663	28	28.84961	29.32813
14.59466	37	29.02539	29.6123
14.60268	32	29.17676	29.89453
14.61071	30	29.31543	30.19238
14.61873	41	29.43066	30.49707
14.62676	33	29.5332	30.82715
14.63478	29	29.63574	31.20117
14.64281	27	29.87891	31.7666
14.65084	21	30.11133	32.38184
14.65886	39	30.32715	33.0498
14.66689	32	30.52734	33.78125
14.67491	25	30.71973	34.59668
14.68294	33	30.90137	35.50684
14.69096	39	31.08008	36.5332
14.69899	31	31.25293	37.68848
14.70701	38	31.42383	38.99219
14.71504	36	31.59375	40.46289
14.72306	42	31.76367	42.11816
14.73109	41	31.93359	43.97656
14.73911	55	32.12598	46.0752
14.74714	60	32.31543	48.4043
14.75517	47	32.49902	50.97656
14.76319	46	32.67383	53.79785
14.77122	53	32.8457	56.88281
14.77924	60	33.00684	60.22852
14.78727	60	33.16309	63.83887
14.79529	64	33.32031	67.71289
14.80332	69	33.52734	71.88672
14.81134	65	33.73145	76.28809
14.81937	79	33.91797	80.87402
14.8274	78	34.09473	85.61914
14.83542	92	34.26855	90.4873
14.84345	68	34.42871	95.41895
14.85147	95	34.58203	100.3643
14.8595	103	34.73633	105.2686
14.86752	106	34.94141	110.1162
14.87555	118	35.14551	114.7832
14.88357	112	35.3418	119.1914
14.8916	124	35.53418	123.2744
14.89962	122	35.7168	126.9561
14.90765	128	35.89551	130.1768
14.91568	137	36.07324	132.8799
14.9237	118	36.24609	135.0127
14.93173	138	36.41895	136.5371
14.93975	143	36.58008	137.4141
14.94778	156	36.73633	137.6309
14.9558	126	36.89258	137.1914
14.96383	134	37.09863	136.1533
14.97185	142	37.2998	134.4863
14.97988	140	37.49902	132.2285
14.9879	131	37.68652	129.418
14.99593	125	37.87012	126.1191
15.00395	126	38.04785	122.3984
15.01198	126	38.22363	118.3291
15.02001	122	38.39941	113.9912
15.02803	108	38.59277	109.4795
15.03606	112	38.78418	104.8506
15.04408	106	38.97559	100.1836
15.05211	100	39.16309	95.54297
15.06013	91	39.34863	90.99512
15.06816	85	39.53125	86.59473
15.07618	64	39.71191	82.39355
15.08421	80	39.89355	78.42969
15.09223	81	40.0752	74.73535
15.10026	56	40.25684	71.32813
15.10829	81	40.4375	68.21875
15.11631	73	40.61719	65.41113
15.12434	54	40.7959	62.90137
15.13236	59	40.97363	60.68066
15.14039	58	41.15137	58.7334
15.14841	62	41.3252	57.03711
15.15644	53	41.49707	55.57129
15.16446	61	41.66504	54.3125
15.17249	52	41.83203	53.23828
15.18051	54	42	52.32617
15.18854	55	42.19238	51.57813
15.19657	51	42.38184	50.94336
15.20459	52	42.57227	50.40723
15.21262	54	42.76465	49.95508
15.22064	37	42.95508	49.56641
15.22867	49	43.14551	49.22852
15.23669	55	43.33105	48.93066
15.24472	56	43.51465	48.66504
15.25274	55	43.69629	48.42578
15.26077	47	43.87695	48.20996
15.26879	47	44.05762	48.0166
15.27682	55	44.24023	47.84375
15.28485	54	44.41992	47.68945
15.29287	44	44.59766	47.55078
15.3009	58	44.77344	47.43262
15.30892	50	44.94922	47.33691
15.31695	46	45.13379	47.27246
15.32497	49	45.3125	47.22754
15.333	45	45.49121	47.21191
15.34102	57	45.6709	47.22852
15.34905	40	45.85059	47.2793
15.35707	41	46.03516	47.375
15.3651	56	46.21582	47.51074
15.37313	58	46.39746	47.69727
15.38115	45	46.58301	47.94824
15.38918	58	46.76563	48.26465
15.3972	52	46.94727	48.66113
15.40523	48	47.12988	49.1543
15.41325	54	47.31152	49.7627
15.42128	46	47.49902	50.51074
15.4293	52	47.68359	51.41699
15.43733	69	47.86523	52.51172
15.44535	60	48.0459	53.83008
15.45338	56	48.22656	55.41309
15.4614	55	48.41504	57.30957
15.46943	62	48.60352	59.55957
15.47746	55	48.78613	62.21289
15.48548	72	48.9668	65.32715
15.49351	75	49.14746	68.96484
15.50153	94	49.3252	73.1875
15.50956	72	49.50195	78.05957
15.51758	72	49.67676	83.64453
15.52561	89	49.84961	90.00586
15.53363	109	50.02344	97.20605
15.54166	104	50.20898	105.3115
15.54968	105	50.38867	114.3525
15.55771	124	50.5625	124.3672
15.56574	131	50.73242	135.3857
15.57376	168	50.90332	147.4229
15.58179	159	51.09766	160.501
15.58981	191	51.2832	174.5645
15.59784	193	51.46777	189.583
15.60586	202	51.6582	205.498
15.61389	203	51.84375	222.2168
15.62191	238	52.02344	239.6299
15.62994	311	52.2002	257.6123
15.63796	287	52.37695	276.0146
15.64599	290	52.57031	294.6826
15.65402	328	52.75977	313.4043
15.66204	352	52.94336	331.9717
15.67007	360	53.125	350.1689
15.67809	341	53.30566	367.7715
15.68612	363	53.49414	384.5537
15.69414	376	53.68262	400.2754
15.70217	418	53.86426	414.7041
15.71019	459	54.04199	427.626
15.71822	407	54.21875	438.8438
15.72624	451	54.39355	448.1787
15.73427	429	54.57031	455.4766
15.7423	469	54.74121	460.6094
15.75032	471	54.90918	463.4893
15.75835	470	55.07813	464.0625
15.76637	464	55.26074	462.3291
15.7744	468	55.44043	458.293
15.78242	442	55.60449	452.0039
15.79045	456	55.76172	443.5693
15.79847	440	55.91895	433.1309
15.8065	408	56.12793	420.9053
15.81452	379	56.32422	407.0215
15.82255	431	56.52051	391.708
15.83057	378	56.71094	375.1943
15.8386	367	56.89844	357.7256
15.84663	342	57.07422	339.5449
15.85465	310	57.24414	320.9072
15.86268	289	57.41406	302.0605
15.8707	258	57.61621	283.2686
15.87873	271	57.81348	264.7129
15.88675	268	58	246.5801
15.89478	235	58.18066	229.0488
15.9028	196	58.36133	212.2744
15.91083	206	58.55078	196.3867
15.91885	178	58.74023	181.4697
15.92688	160	58.91992	167.585
15.93491	179	59.09473	154.7793
15.94293	146	59.2666	143.0742
15.95096	123	59.43848	132.4717
15.95898	148	59.60938	122.9521
15.96701	115	59.77734	114.4736
15.97503	86	59.93848	106.9863
15.98306	117	60.09961	100.4365
15.99108	92	60.2793	94.77637
15.99911	80	60.45605	89.91016
16.00714	97	60.6084	85.74316
16.01516	78	60.74805	82.21191
16.02319	89	60.8877	79.25488
16.03121	91	61.11914	76.8916
16.03924	83	61.33496	74.94824
16.04726	67	61.53613	73.36328
16.05529	66	61.73047	72.08594
16.06331	62	61.92188	71.06641
16.07134	70	62.09473	70.24609
16.07936	64	62.25977	69.59277
16.08739	56	62.4248	69.0791
16.09542	67	62.63672	68.72363
16.10344	75	62.84473	68.4502
16.11147	68	63.03418	68.22266
16.11949	72	63.21484	68.03418
16.12752	59	63.39551	67.88184
16.13554	72	63.58789	67.7666
16.14357	81	63.78027	67.6709
16.15159	75	63.95996	67.57422
16.15962	72	64.13281	67.48242
16.16764	80	64.30176	67.39258
16.17567	72	64.46777	67.30859
16.18369	71	64.63379	67.2334
16.19172	67	64.7959	67.16211
16.19975	71	64.94922	67.08984
16.20777	59	65.10156	67.02734
16.2158	68	65.27832	67.00098
16.22382	88	65.45117	66.98145
16.23185	74	65.58984	66.94043
16.23987	70	65.71191	66.89648
16.2479	77	65.83398	66.86621
16.25592	82	66.08594	66.97949
16.26395	65	66.3252	67.09277
16.27197	67	66.53711	67.19238
16.28	67	66.73438	67.29004
16.28802	73	66.9248	67.39258
16.29605	79	67.0957	67.4873
16.30408	69	67.25781	67.58301
16.3121	67	67.41992	67.68848
16.32013	67	67.6416	67.8623
16.32815	82	67.86035	68.04004
16.33618	60	68.05762	68.2041
16.3442	74	68.24414	68.36328
16.35223	78	68.42578	68.52246
16.36025	77	68.60547	68.68457
16.36828	68	68.78613	68.85059
16.3763	75	68.96582	69.02148
16.38433	76	69.13965	69.18848
16.39236	63	69.30176	69.34668
16.40038	73	69.45801	69.50293
16.40841	71	69.61426	69.66211
16.41643	72	69.79688	69.85156
16.42446	93	69.96094	70.02539
16.43248	60	70.125	70.2041
16.44051	73	70.29297	70.39063
16.44853	87	70.45605	70.5791
16.45656	97	70.58398	70.73828
16.46458	83	70.69434	70.8877
16.47261	84	70.80469	71.0459
16.48064	103	71.07715	71.37793
16.48866	99	71.33301	71.7041
16.49669	91	71.55859	72.01465
16.50471	96	71.75977	72.31641
16.51274	106	71.94824	72.62305
16.52076	94	72.12012	72.93262
16.52879	85	72.2832	73.25586
16.53681	87	72.44727	73.60352
16.54484	109	72.66309	74.02832
16.55287	96	72.87988	74.48047
16.56089	93	73.08203	74.94727
16.56892	96	73.27734	75.43652
16.57694	97	73.45801	75.93945
16.58497	112	73.62988	76.46289
16.59299	83	73.80176	77.01563
16.60102	104	73.98242	77.60254
16.60904	107	74.1543	78.20508
16.61707	101	74.3125	78.81445
16.62509	111	74.46289	79.43359
16.63312	108	74.61328	80.06445
16.64115	115	74.81836	80.75684
16.64917	107	75.01074	81.43555
16.6572	106	75.19043	82.0957
16.66522	110	75.3584	82.72949
16.67325	95	75.51953	83.33594
16.68127	103	75.64648	83.88086
16.6893	116	75.75781	84.37402
16.69732	105	75.86914	84.82422
16.70535	108	76.14941	85.39551
16.71337	91	76.41211	85.89355
16.7214	113	76.64648	86.30566
16.72943	101	76.85645	86.63184
16.73745	107	77.05371	86.88184
16.74548	96	77.23535	87.05078
16.7535	99	77.40918	87.14844
16.76153	85	77.58301	87.18457
16.76955	104	77.7832	87.18652
16.77758	79	77.98242	87.13379
16.7856	95	78.18262	87.0332
16.79363	92	78.38184	86.8877
16.80165	102	78.57129	86.69824
16.80968	90	78.75684	86.47461
16.81771	94	78.94336	86.23145
16.82573	90	79.11914	85.96387
16.83376	101	79.28906	85.68457
16.84178	78	79.44434	85.3916
16.84981	76	79.5918	85.09961
16.85783	90	79.74023	84.82031
16.86586	75	79.96973	84.6416
16.87388	87	80.19336	84.48047
16.88191	75	80.38574	84.31348
16.88993	91	80.56055	84.15723
16.89796	81	80.72656	84.02148
16.90598	77	80.86328	83.8877
16.91401	77	80.98633	83.76953
16.92204	78	81.1084	83.68066
16.93006	87	81.37305	83.76172
16.93809	102	81.63281	83.86328
16.94611	81	81.88574	83.98242
16.95414	102	82.12402	84.10645
16.96216	71	82.33984	84.22656
16.97019	77	82.54395	84.34863
16.97821	74	82.73535	84.47168
16.98624	88	82.91895	84.59668
16.99426	71	83.09961	84.72363
17.00229	81	83.25977	84.83594
17.01031	95	83.41113	84.94141
17.01834	93	83.5625	85.04785
17.02637	88	83.80469	85.24512
17.03439	99	84.04395	85.43652
17.04242	74	84.28125	85.62402
17.05044	82	84.49902	85.79004
17.05847	94	84.70801	85.94238
17.06649	84	84.91211	86.08789
17.07452	92	85.11426	86.22852
17.08254	98	85.30762	86.35742
17.09057	93	85.49316	86.47656
17.09859	92	85.6748	86.5918
17.10662	80	85.85059	86.69922
17.11465	81	86.02148	86.80371
17.12267	89	86.19336	86.90918
17.1307	89	86.45508	87.10547
17.13872	96	86.71094	87.29883
17.14675	74	86.9541	87.48145
17.15477	83	87.19141	87.66113
17.1628	80	87.41895	87.83594
17.17082	75	87.64355	88.01074
17.17885	87	87.86816	88.18945
17.18687	97	88.11328	88.39258
17.1949	101	88.35742	88.59961
17.20293	101	88.5918	88.7998
17.21095	94	88.82129	88.99805
17.21898	94	89.04785	89.19922
17.227	104	89.26855	89.39746
17.23503	87	89.48535	89.59473
17.24305	95	89.70313	89.79688
17.25108	87	89.93555	90.01758
17.2591	100	90.16406	90.2373
17.26713	96	90.38867	90.45801
17.27515	104	90.60645	90.67285
17.28318	96	90.81934	90.88867
17.29121	103	91.0293	91.10742
17.29923	88	91.23828	91.33008
17.30726	95	91.44727	91.55957
17.31528	94	91.65723	91.79785
17.32331	119	91.8623	92.04102
17.33133	105	92.06152	92.29102
17.33936	105	92.25781	92.55371
17.34738	85	92.45313	92.83496
17.35541	114	92.69922	93.1875
17.36343	99	92.94141	93.56543
17.37146	99	93.18359	93.97656
17.37949	117	93.42285	94.42383
17.38751	94	93.66016	94.91699
17.39554	101	93.89746	95.46582
17.40356	108	94.13672	96.08105
17.41159	99	94.37305	96.76855
17.41961	111	94.6084	97.54102
17.42764	129	94.83984	98.40723
17.43566	93	95.06836	99.37988
17.44369	118	95.2959	100.4727
17.45172	114	95.52148	101.6992
17.45974	86	95.74805	103.0723
17.46777	118	95.98047	104.6094
17.47579	118	96.20996	106.3096
17.48382	111	96.43555	108.1816
17.49184	111	96.66016	110.2334
17.49987	125	96.88184	112.4678
17.50789	127	97.10059	114.8828
17.51592	122	97.31738	117.4766
17.52394	120	97.53223	120.2383
17.53197	129	97.74609	123.1582
17.54	102	97.95996	126.2197
17.54802	122	98.17969	129.4053
17.55605	167	98.39941	132.6816
17.56407	141	98.61719	136.0156
17.5721	130	98.82617	139.3633
17.58012	150	99.03516	142.6934
17.58815	165	99.2832	146.0029
17.59617	158	99.52734	149.2051
17.6042	141	99.75684	152.2432
17.61222	156	99.97852	155.0781
17.62025	166	100.2002	157.6758
17.62827	147	100.4482	160.0195
17.6363	163	100.6865	162.0381
17.64433	173	100.918	163.7002
17.65235	153	101.1445	164.9854
17.66038	153	101.3721	165.877
17.6684	172	101.6094	166.374
17.67643	154	101.8379	166.4541
17.68445	158	102.0674	166.1309
17.69248	177	102.3066	165.4248
17.7005	176	102.5449	164.3457
17.70853	160	102.7715	162.9111
17.71655	134	102.9941	161.1582
17.72458	161	103.2158	159.1328
17.7326	152	103.4521	156.8887
17.74063	162	103.6846	154.4551
17.74866	138	103.9063	151.8721
17.75668	142	104.124	149.1914
17.76471	144	104.3408	146.4668
17.77273	144	104.5801	143.7617
17.78076	141	104.8174	141.0947
17.78878	128	105.04	138.4922
17.79681	124	105.2559	135.9951
17.80483	137	105.4727	133.6377
17.81286	113	105.7217	131.4766
17.82088	139	105.9648	129.4912
17.82891	130	106.1953	127.6846
17.83694	114	106.4189	126.0723
17.84496	137	106.6426	124.6621
17.85299	114	106.8916	123.4766
17.86101	119	107.1338	122.4766
17.86904	127	107.3662	121.6494
17.87706	123	107.5928	120.9863
17.88509	120	107.8193	120.4775
17.89311	122	108.0586	120.1191
17.90114	144	108.2881	119.8711
17.90916	119	108.5186	119.7236
17.91719	131	108.7568	119.665
17.92522	132	108.9922	119.6699
17.93324	119	109.2139	119.707
17.94127	118	109.4297	119.7686
17.94929	117	109.6445	119.8467
17.95732	128	109.9043	119.9727
17.96534	123	110.1592	120.0859
17.97337	115	110.3965	120.165
17.98139	117	110.625	120.2119
17.98942	109	110.8535	120.2314
17.99744	130	111.0957	120.2314
18.00547	131	111.3262	120.1885
18.0135	142	111.5576	120.1113
18.02152	115	111.8057	120.0215
18.02955	114	112.0537	119.9004
18.03757	115	112.2832	119.7373
18.0456	126	112.5039	119.5449
18.05362	112	112.7246	119.3359
18.06165	123	112.9736	119.1455
18.06967	108	113.2197	118.9453
18.0777	105	113.4502	118.7305
18.08572	101	113.6738	118.5146
18.09375	120	113.8984	118.3076
18.10178	106	114.1465	118.1387
18.1098	126	114.3916	117.9824
18.11783	124	114.6211	117.832
18.12585	122	114.8438	117.6963
18.13388	131	115.0664	117.585
18.1419	112	115.3203	117.5303
18.14993	123	115.5684	117.4961
18.15795	122	115.7988	117.4688
18.16598	119	116.0195	117.457
18.174	116	116.2402	117.4707
18.18203	122	116.5049	117.5508
18.19006	117	116.7627	117.6465
18.19808	142	116.999	117.7412
18.20611	130	117.2256	117.8457
18.21413	122	117.4521	117.9658
18.22216	120	117.7109	118.1338
18.23018	121	117.959	118.3057
18.23821	117	118.1992	118.4814
18.24623	132	118.4346	118.6631
18.25426	123	118.6709	118.8545
18.26229	109	118.9043	119.0508
18.27031	128	119.1221	119.2383
18.27834	127	119.3398	119.4316
18.28636	128	119.5908	119.6631
18.29439	112	119.8379	119.8945
18.30241	123	120.0596	120.1035
18.31044	122	120.2695	120.3027
18.31846	114	120.4785	120.5049
18.32649	108	120.748	120.7676
18.33451	115	121.001	121.0166
18.34254	107	121.25	121.2617
18.35056	142	121.498	121.5068
18.35859	137	121.7451	121.752
18.36662	133	122.0156	122.0215
18.37464	133	122.2783	122.2832
18.38267	147	122.5234	122.5273
18.39069	125	122.7598	122.7627
18.39872	131	122.9971	122.999
18.40674	117	123.2607	123.2637
18.41477	122	123.5195	123.5215
18.42279	125	123.7598	123.7617
18.43082	134	123.9902	123.9922
18.43884	143	124.2207	124.2227
18.44687	128	124.4639	124.4658
18.4549	147	124.6914	124.6934
18.46292	120	124.9189	124.9209
18.47095	128	125.1553	125.1572
18.47897	137	125.3916	125.3945
18.487	125	125.6123	125.6152
18.49502	135	125.8096	125.8125
18.50305	109	126.0068	126.0098
18.51107	121	126.2842	126.2871
18.5191	119	126.5459	126.5488
18.52712	108	126.7744	126.7773
18.53515	145	126.9854	126.9893
18.54317	132	127.1973	127.2021
18.5512	127	127.4209	127.4258
18.55923	127	127.5967	127.6006
18.56725	115	127.7715	127.7764
18.57528	149	128.2383	128.2432
18.5833	140	128.6826	128.6875
18.59133	146	129.0908	129.0957
18.59935	121	129.4805	129.4863
18.60738	135	129.8545	129.8604
18.6154	129	130.2197	130.2266
18.62343	119	130.5771	130.584
18.63145	129	130.9219	130.9297
18.63948	154	131.2617	131.2695
18.6475	126	131.5938	131.6016
18.65553	130	131.9219	131.9307
18.66356	116	132.25	132.2588
18.67158	155	132.5693	132.5791
18.67961	147	132.8857	132.8955
18.68763	127	133.2002	133.2109
18.69566	133	133.5146	133.5254
18.70368	125	133.8291	133.8398
18.71171	137	134.1406	134.1523
18.71973	136	134.4521	134.4648
18.72776	144	134.7637	134.7764
18.73578	147	135.0938	135.1074
18.74381	141	135.4238	135.4375
18.75184	112	135.7393	135.7539
18.75986	131	136.0469	136.0615
18.76789	146	136.3477	136.3643
18.77591	155	136.6465	136.6631
18.78394	127	136.9453	136.9629
18.79196	155	137.2744	137.293
18.79999	132	137.5918	137.6104
18.80801	130	137.9063	137.9258
18.81604	147	138.2188	138.2383
18.82407	157	138.5313	138.5527
18.83209	157	138.8604	138.8818
18.84012	146	139.1807	139.2031
18.84814	141	139.4971	139.5205
18.85617	159	139.8115	139.8359
18.86419	146	140.127	140.1514
18.87222	146	140.4346	140.46
18.88024	131	140.7354	140.7617
18.88827	134	141.0313	141.0586
18.89629	139	141.3242	141.3525
18.90432	151	141.6162	141.6455
18.91235	154	141.8848	141.915
18.92037	147	142.1406	142.1719
18.9284	140	142.3965	142.4287
18.93642	142	142.7725	142.8057
18.94445	148	143.1426	143.1768
18.95247	144	143.4346	143.4697
18.9605	130	143.6885	143.7236
18.96852	152	143.9414	143.9785
18.97655	136	144.46	144.498
18.98457	148	144.9531	144.9922
18.9926	154	145.3975	145.4365
19.00063	150	145.8164	145.8564
19.00865	147	146.2275	146.2686
19.01668	144	146.6348	146.6777
19.0247	151	147.043	147.0869
19.03273	153	147.4336	147.4785
19.04075	161	147.8037	147.8496
19.04878	118	148.1748	148.2217
19.0568	165	148.6094	148.6572
19.06483	149	149.0273	149.0762
19.07285	162	149.4063	149.4561
19.08088	158	149.7656	149.8164
19.08891	152	150.126	150.1777
19.09693	143	150.585	150.6377
19.10496	161	151.0293	151.084
19.11298	171	151.4424	151.4971
19.12101	168	151.8389	151.8945
19.12903	149	152.2354	152.292
19.13706	161	152.6445	152.7012
19.14508	156	153.0527	153.1113
19.15311	162	153.4463	153.5059
19.16113	134	153.8242	153.8838
19.16916	145	154.1934	154.2539
19.17719	172	154.5498	154.6113
19.18521	155	154.9004	154.9629
19.19324	154	155.2334	155.2969
19.20126	155	155.5586	155.6221
19.20929	130	155.8789	155.9434
19.21731	189	156.1973	156.2627
19.22534	164	156.5156	156.582
19.23336	175	157.0049	157.0713
19.24139	152	157.6406	157.707
19.24941	163	158.2773	158.3447
19.25744	158	158.8975	158.9648
19.26546	155	159.5098	159.5781
19.27349	167	160.1113	160.1797
19.28152	144	160.6855	160.7549
19.28954	142	161.2461	161.3154
19.29757	181	161.7832	161.8535
19.30559	168	162.3096	162.3799
19.31362	166	162.8359	162.9072
19.32164	174	163.3623	163.4336
19.32967	157	163.8672	163.9385
19.33769	183	164.3691	164.4404
19.34572	186	164.8691	164.9424
19.35374	166	165.3701	165.4434
19.36177	161	165.8281	165.9014
19.36979	183	166.2568	166.3311
19.37782	173	166.6865	166.7617
19.38585	161	167.3447	167.4209
19.39387	175	167.9854	168.0625
19.4019	199	168.5869	168.666
19.40992	186	169.1699	169.25
19.41795	156	169.7539	169.8359
19.42597	183	170.3125	170.3975
19.434	199	170.8555	170.9434
19.44202	176	171.3984	171.4912
19.45005	172	171.9658	172.0625
19.45807	171	172.5195	172.6221
19.4661	155	173.0322	173.1426
19.47413	186	173.5254	173.6436
19.48215	202	174.0186	174.1475
19.49018	175	174.6074	174.749
19.4982	208	175.1865	175.3418
19.50623	186	175.6992	175.8711
19.51425	178	176.1777	176.3691
19.52228	169	176.6582	176.8711
19.5303	215	177.2266	177.4648
19.53833	179	177.7783	178.0449
19.54635	164	178.2813	178.5811
19.55438	171	178.7607	179.0967
19.56241	194	179.2412	179.6172
19.57043	178	179.7949	180.2158
19.57846	205	180.3105	180.7793
19.58648	189	180.8213	181.3447
19.59451	181	181.332	181.9131
19.60253	201	181.8428	182.4873
19.61056	195	182.3838	183.0947
19.61858	190	182.8955	183.6787
19.62661	167	183.374	184.2324
19.63463	217	183.8359	184.7725
19.64266	185	184.2979	185.3164
19.65069	191	184.8525	185.9551
19.65871	210	185.3779	186.5664
19.66674	193	185.8574	187.1318
19.67476	165	186.3135	187.6748
19.68279	196	186.7695	188.2178
19.69081	183	187.2285	188.7627
19.69884	201	187.6484	189.2646
19.70686	193	188.0674	189.7637
19.71489	180	188.4854	190.2568
19.72292	196	188.8896	190.7314
19.73094	208	189.2305	191.1367
19.73897	175	189.54	191.5049
19.74699	204	189.8496	191.8652
19.75502	190	190.7627	192.8223
19.76304	197	191.6494	193.7461
19.77107	207	192.5381	194.6641
19.77909	194	193.457	195.6045
19.78712	188	194.3506	196.5117
19.79514	189	195.2334	197.4014
19.80317	191	196.1133	198.2822
19.8112	201	196.9951	199.1582
19.81922	182	197.8477	200.001
19.82725	200	198.6748	200.8145
19.83527	184	199.5049	201.627
19.8433	205	200.5908	202.6943
19.85132	228	201.6504	203.7354
19.85935	220	202.6387	204.7051
19.86737	221	203.5918	205.6426
19.8754	200	204.5479	206.585
19.88342	198	205.666	207.6963
19.89145	218	206.7686	208.7979
19.89948	193	207.8301	209.8643
19.9075	192	208.8711	210.9199
19.91553	207	209.915	211.9883
19.92355	218	210.9844	213.0928
19.93158	213	212.043	214.2002
19.9396	232	213.1055	215.3223
19.94763	218	214.1641	216.4551
19.95565	210	215.2197	217.5996
19.96368	216	216.2686	218.7529
19.9717	225	217.3096	219.9141
19.97973	215	218.3486	221.0898
19.98775	249	219.376	222.2715
19.99578	198	220.3984	223.4678
20.00381	245	221.4199	224.6807
20.01183	237	222.4404	225.9141
20.01986	238	223.46	227.166
20.02788	207	224.4697	228.4287
20.03591	241	225.4746	229.71
20.04393	224	226.4824	231.0156
20.05196	253	227.499	232.3555
20.05998	224	228.5029	233.7061
20.06801	241	229.502	235.0771
20.07603	233	230.498	236.4736
20.08406	258	231.4941	237.8975
20.09208	254	232.4932	239.3535
20.10011	241	233.4863	240.835
20.10814	238	234.4736	242.3428
20.11616	240	235.4629	243.8857
20.12419	243	236.4668	245.4795
20.13221	278	237.4629	247.1025
20.14024	283	238.458	248.7627
20.14826	223	239.4414	250.4531
20.15629	268	240.4219	252.1816
20.16431	263	241.3994	253.9512
20.17234	258	242.376	255.7676
20.18036	283	243.3447	257.625
20.18839	246	244.3076	259.5264
20.19641	268	245.2676	261.4785
20.20444	272	246.2207	263.4795
20.21247	282	247.166	265.5303
20.22049	265	248.1074	267.6387
20.22852	260	249.042	269.8027
20.23654	267	249.9746	272.0303
20.24457	282	250.8965	274.3154
20.25259	280	251.8135	276.667
20.26062	300	252.7266	279.0889
20.26864	307	253.6348	281.5811
20.27667	268	254.5391	284.1494
20.2847	321	255.4287	286.7852
20.29272	278	256.3115	289.498
20.30075	297	257.1914	292.2969
20.30877	290	258.0703	295.1846
20.3168	326	258.9512	298.167
20.32482	328	259.8164	301.2305
20.33285	316	260.6738	304.3848
20.34087	326	261.5332	307.6406
20.3489	310	262.417	311.0264
20.35692	300	263.293	314.5098
20.36495	328	264.1631	318.0957
20.37298	353	265.0146	321.7754
20.381	308	265.8584	325.5596
20.38903	313	266.6924	329.4492
20.39705	344	267.5225	333.4512
20.40508	348	268.3477	337.5684
20.4131	353	269.165	341.7979
20.42113	365	269.9785	346.1465
20.42915	365	270.7822	350.6084
20.43718	395	271.5703	355.1807
20.4452	385	272.3506	359.8711
20.45323	400	273.123	364.6807
20.46126	356	273.8896	369.6143
20.46928	410	274.6416	374.6611
20.47731	385	275.3867	379.8301
20.48533	404	276.1211	385.1191
20.49336	426	276.8496	390.5352
20.50138	439	277.5732	396.0752
20.50941	400	278.2832	401.7334
20.51743	407	278.9863	407.5156
20.52546	463	279.6846	413.4248
20.53349	436	280.3799	419.4619
20.54151	450	281.0762	425.6299
20.54954	446	281.7568	431.9131
20.55756	457	282.4307	438.3193
20.56559	451	283.1006	444.8496
20.57361	459	283.7666	451.5039
20.58164	445	284.4297	458.2822
20.58966	496	285.083	465.1748
20.59769	497	285.7256	472.1807
20.60571	502	286.3594	479.2988
20.61374	477	286.9766	486.5205
20.62177	478	287.5869	493.8506
20.62979	511	288.1914	501.29
20.63782	529	288.7871	508.833
20.64584	534	289.3809	516.4795
20.65387	526	289.9609	524.2168
20.66189	498	290.5273	532.041
20.66992	556	291.0879	539.9541
20.67794	555	291.6377	547.9463
20.68597	606	292.1738	556.0107
20.69399	535	292.6953	564.1406
20.70202	578	293.21	572.3359
20.71004	614	293.707	580.582
20.71807	596	294.1973	588.8818
20.7261	633	294.6816	597.2295
20.73412	603	295.1592	605.6152
20.74215	574	295.6328	614.0361
20.75017	637	296.0947	622.4756
20.7582	599	296.5508	630.9316
20.76622	669	297	639.3945
20.77425	669	297.4307	647.8447
20.78227	644	297.8525	656.2803
20.7903	621	298.2686	664.6963
20.79832	669	298.6816	673.0869
20.80635	716	299.0908	681.4414
20.81437	713	299.4883	689.7412
20.8224	675	299.8789	697.9824
20.83043	674	300.2559	706.1475
20.83845	648	300.6143	714.2217
20.84648	684	300.9639	722.2041
20.8545	697	301.3037	730.085
20.86253	703	301.6357	737.8545
20.87055	772	301.9619	745.5068
20.87858	758	302.2744	753.0225
20.8866	753	302.5801	760.3965
20.89463	760	302.877	767.6201
20.90265	752	303.1641	774.6816
20.91068	737	303.4355	781.5654
20.9187	743	303.6924	788.2617
20.92673	758	303.9414	794.7686
20.93476	731	304.1719	801.0674
20.94278	746	304.3945	807.1572
20.95081	799	304.6104	813.0332
20.95883	786	304.8193	818.6826
20.96686	825	305.0225	824.1035
20.97488	814	305.2139	829.2773
20.98291	803	305.3975	834.2041
20.99093	832	305.5732	838.874
20.99896	831	305.7324	843.2715
21.00698	863	305.8828	847.3984
21.01501	824	306.0234	851.2471
21.02304	801	306.1582	854.8164
21.03106	839	306.2881	858.1006
21.03909	839	306.4072	861.0889
21.04711	876	306.5205	863.7832
21.05514	867	306.624	866.1738
21.06316	829	306.707	868.2471
21.07119	878	306.7783	870.0078
21.07921	863	306.8418	871.458
21.08724	848	306.8945	872.5928
21.09527	880	306.9346	873.4063
21.10329	900	306.9668	873.9043
21.11132	920	306.9873	874.082
21.11934	866	307.001	873.9434
21.12737	830	307.0107	873.4922
21.13539	825	307.0107	872.7207
21.14342	811	306.9961	871.6299
21.15144	865	306.9707	870.2207
21.15947	859	306.9326	868.4971
21.16749	905	306.8838	866.4619
21.17552	851	306.8281	864.123
21.18355	855	306.7646	861.4805
21.19157	859	306.6963	858.5449
21.1996	872	306.6172	855.3125
21.20762	920	306.5303	851.793
21.21565	845	306.4404	847.9941
21.22367	878	306.3281	843.9043
21.2317	833	306.2041	839.541
21.23972	856	306.0752	834.915
21.24775	904	305.9395	830.0313
21.25577	802	305.7949	824.8984
21.2638	768	305.6475	819.5264
21.27183	818	305.4844	813.9111
21.27985	876	305.3125	808.0693
21.28788	835	305.1338	802.0088
21.2959	826	304.9404	795.7324
21.30393	878	304.7402	789.2549
21.31195	831	304.5244	782.5791
21.31998	810	304.3018	775.7207
21.328	796	304.0791	768.6973
21.33603	773	303.8389	761.5
21.34405	832	303.5889	754.1475
21.35208	765	303.334	746.6543
21.36011	766	303.0762	739.0322
21.36813	791	302.8164	731.293
21.37616	748	302.5391	723.4307
21.38418	747	302.2529	715.4639
21.39221	727	301.9609	707.4063
21.40023	749	301.6533	699.2578
21.40826	748	301.3369	691.0352
21.41628	739	301.0137	682.752
21.42431	720	300.6875	674.4199
21.43233	625	300.3584	666.0518
21.44036	703	300.0273	657.6572
21.44839	677	299.6846	649.2334
21.45641	658	299.3271	640.79
21.46444	693	298.9629	632.3428
21.47246	611	298.5889	623.8984
21.48049	621	298.208	615.4688
21.48851	630	297.8242	607.0654
21.49654	637	297.4297	598.6885
21.50456	543	297.0283	590.3525
21.51259	614	296.625	582.0684
21.52061	544	296.209	573.833
21.52864	607	295.7842	565.6602
21.53666	592	295.3467	557.5508
21.54469	513	294.9014	549.5195
21.55272	522	294.4531	541.5771
21.56074	511	293.9932	533.7227
21.56877	533	293.5264	525.9707
21.57679	514	293.0508	518.3242
21.58482	488	292.5703	510.7969
21.59284	502	292.0908	503.4033
21.60087	468	291.6133	496.1563
21.60889	457	291.1279	489.0557
21.61692	450	290.6309	482.1074
21.62494	418	290.1289	475.3311
21.63297	439	289.6191	468.7402
21.641	430	289.1016	462.3506
21.64902	458	288.5791	456.1826
21.65705	448	288.0527	450.2578
21.66507	468	287.5244	444.6006
21.6731	429	286.9844	439.2266
21.68112	385	286.4395	434.1719
21.68915	405	285.8906	429.4678
21.69717	409	285.3232	425.1328
21.7052	421	284.7451	421.2129
21.71322	426	284.1582	417.75
21.72125	368	283.5674	414.791
21.72927	404	282.9775	412.3867
21.7373	365	282.3848	410.5781
21.74533	396	281.7754	409.4023
21.75335	404	281.166	408.9229
21.76138	386	280.5645	409.1963
21.7694	379	279.959	410.2598
21.77743	350	279.3203	412.1279
21.78545	396	278.666	414.8623
21.79348	400	278.0127	418.5176
21.8015	411	277.4346	423.1992
21.80953	403	276.8389	428.8418
21.81755	394	276.2129	435.4502
21.82558	407	275.5723	443.0498
21.83361	411	274.9336	451.6563
21.84163	436	274.2686	461.2324
21.84966	430	273.585	471.7656
21.85768	453	272.9023	483.2441
21.86571	462	272.2988	495.7031
21.87373	465	271.6865	509.0039
21.88176	554	271.0518	523.0742
21.88978	525	270.4053	537.8555
21.89781	584	269.7412	553.2646
21.90583	590	269.0684	569.2314
21.91386	556	268.3916	585.6777
21.92189	588	267.7061	602.5107
21.92991	598	267.0166	619.6504
21.93794	662	266.3057	636.9932
21.94596	612	265.585	654.4668
21.95399	671	264.8652	672.0049
21.96201	709	264.1709	689.5557
21.97004	661	263.4541	707
21.97806	744	262.7285	724.2871
21.98609	703	261.9951	741.3535
21.99412	722	261.2588	758.1445
22.00214	803	260.4873	774.5713
22.01017	775	259.7002	790.5938
22.01819	793	258.9131	806.168
22.02622	861	258.2959	821.3984
22.03424	878	257.6621	836.0303
22.04227	851	256.9775	849.9531
22.05029	862	256.2695	863.1074
22.05832	873	255.5625	875.4238
22.06634	887	254.8662	886.8096
22.07437	887	254.1514	897.1211
22.0824	935	253.4375	906.2568
22.09042	924	252.7559	914.1211
22.09845	988	252.0654	920.54
22.10647	975	251.3633	925.3799
22.1145	934	250.6504	928.5098
22.12252	969	249.9307	929.8115
22.13055	917	249.2061	929.1738
22.13857	929	248.4795	926.5
22.1466	901	247.7471	921.71
22.15462	974	247.0078	914.7441
22.16265	926	246.2656	905.5762
22.17068	876	245.5186	894.2041
22.1787	894	244.7607	880.6484
22.18673	888	243.998	864.9746
22.19475	822	243.2266	847.2725
22.20278	879	242.4512	827.668
22.2108	836	241.6768	806.3164
22.21883	814	240.9287	783.4199
22.22685	730	240.1621	759.1348
22.23488	736	239.3975	733.6963
22.2429	668	238.6348	707.3369
22.25093	688	237.8672	680.291
22.25896	670	237.0615	652.7695
22.26698	625	236.2383	625.0352
22.27501	600	235.416	597.3428
22.28303	537	234.7939	570.1182
22.29106	535	234.1504	543.3506
22.29908	537	233.4443	517.1914
22.30711	458	232.707	491.8447
22.31513	456	231.9707	467.4912
22.32316	441	231.2549	444.2773
22.33118	434	230.5049	422.2441
22.33921	391	229.7559	401.5059
22.34723	345	229.0762	382.1787
22.35526	366	228.3916	364.2178
22.36329	325	227.6543	347.582
22.37131	313	226.8906	332.2842
22.37934	287	226.1289	318.3223
22.38736	293	225.416	305.6982
22.39539	282	224.7041	294.3096
22.40341	272	223.9805	284.0771
22.41144	255	223.2295	274.9121
22.41946	252	222.457	266.7422
22.42749	226	221.6738	259.498
22.43551	215	220.8916	253.1113
22.44354	213	220.1074	247.4971
22.45156	250	219.2871	242.5449
22.45959	221	218.4697	238.2148
22.46762	232	217.751	234.5361
22.47564	244	216.9912	231.3008
22.48367	213	216.1641	228.4209
22.49169	215	215.3037	225.876
22.49972	219	214.4443	223.6504
22.50774	217	213.9521	222.0635
22.51577	201	213.3896	220.6396
22.52379	209	212.8135	219.3994
22.53182	211	212.2314	218.3193
22.53984	189	211.6494	217.3818
22.54787	230	211.0703	216.5664
22.5559	214	210.4512	215.8086
22.56392	233	209.833	215.1367
22.57195	219	209.2607	214.5811
22.57997	208	208.6416	214.0381
22.588	214	208.0244	213.5479
22.59602	203	207.707	213.3994
22.60405	198	207.3818	213.2803
22.61207	220	207.0518	213.1885
22.6201	200	206.7197	213.125
22.62812	189	206.3398	213.0381
22.63615	221	205.9355	212.9521
22.64418	214	205.5137	212.8701
22.6522	216	205.082	212.7988
22.66023	186	204.6514	212.748
22.66825	190	204.5986	213.0957
22.67628	218	204.5234	213.4385
22.6843	191	204.4053	213.7559
22.69233	221	204.2637	214.0713
22.70035	219	204.1133	214.3955
22.70838	214	203.9424	214.7168
22.7164	184	203.7598	215.0459
22.72443	233	203.5762	215.3936
22.73246	224	203.3936	215.7588
22.74048	218	203.21	216.1445
22.74851	208	203.0137	216.5371
22.75653	210	202.8037	216.9346
22.76456	197	202.584	217.3438
22.77258	240	202.3564	217.7646
22.78061	232	202.125	218.2021
22.78863	196	201.8691	218.6357
22.79666	199	201.5996	219.0781
22.80468	233	201.3252	219.5361
22.81271	200	201.0469	220.0127
22.82074	230	200.7686	220.5127
22.82876	232	200.5654	221.1094
22.83679	217	200.3389	221.707
22.84481	217	200.1006	222.3174
22.85284	219	199.8252	222.9121
22.86086	232	199.5303	223.5146
22.86889	233	199.2256	224.1328
22.87691	237	198.916	224.7715
22.88494	241	198.6064	225.4375
22.89297	234	198.4092	226.2422
22.90099	255	198.1963	227.0586
22.90902	221	197.9736	227.8926
22.91704	218	197.7285	228.7324
22.92507	219	197.4717	229.5889
22.93309	234	197.208	230.4668
22.94112	284	196.9414	231.3711
22.94914	231	196.6748	232.3057
22.95717	236	196.416	233.2764
22.96519	250	196.1533	234.2734
22.97322	234	195.8789	235.2891
22.98125	237	195.5947	236.3232
22.98927	236	195.3037	237.3818
22.9973	235	195.0059	238.4619
23.00532	230	194.7041	239.5693
23.01335	271	194.4023	240.7051
23.02137	252	194.1016	241.8711
23.0294	249	193.7959	243.0625
23.03742	266	193.4805	244.2705
23.04545	252	193.1592	245.502
23.05347	280	192.8389	246.7617
23.0615	258	192.5225	248.0527
23.06952	230	192.2012	249.3643
23.07755	249	191.8711	250.6953
23.08558	276	191.5381	252.0469
23.0936	233	191.2012	253.4189
23.10163	270	190.8555	254.8066
23.10965	252	190.5059	256.2129
23.11768	229	190.1543	257.6387
23.1257	270	189.7969	259.0811
23.13373	268	189.4365	260.54
23.14175	274	189.0723	262.0146
23.14978	279	188.7041	263.5039
23.1578	273	188.3311	265.0039
23.16583	272	187.9541	266.5176
23.17385	277	187.5742	268.042
23.18188	272	187.1914	269.5791
23.18991	273	186.8086	271.127
23.19793	286	186.4238	272.6836
23.20596	259	186.0342	274.2471
23.21398	271	185.6436	275.8164
23.22201	287	185.2441	277.3848
23.23003	274	184.8398	278.9551
23.23806	251	184.4346	280.5273
23.24608	287	184.0293	282.1025
23.25411	292	183.6201	283.6758
23.26213	298	183.209	285.2471
23.27016	287	182.7979	286.8164
23.27818	319	182.3838	288.3779
23.28621	270	181.96	289.9258
23.29424	324	181.5313	291.4629
23.30226	286	181.0977	292.9863
23.31029	300	180.6602	294.4971
23.31831	284	180.2207	295.9922
23.32634	283	179.7764	297.4707
23.33436	300	179.3311	298.9326
23.34239	310	178.8809	300.373
23.35041	289	178.4258	301.79
23.35844	307	177.9658	303.1826
23.36647	302	177.5039	304.5508
23.37449	300	177.0391	305.8926
23.38252	339	176.5693	307.2041
23.39054	294	176.0986	308.4883
23.39857	287	175.624	309.7393
23.40659	325	175.1484	310.96
23.41462	297	174.6709	312.1455
23.42264	310	174.1914	313.2959
23.43067	327	173.708	314.4072
23.43869	328	173.2227	315.4805
23.44672	311	172.7305	316.5078
23.45475	337	172.2354	317.4922
23.46277	307	171.7393	318.4346
23.4708	293	171.2402	319.332
23.47882	272	170.7393	320.1816
23.48685	308	170.2373	320.9854
23.49487	303	169.7334	321.7402
23.5029	323	169.2275	322.4453
23.51092	350	168.7139	323.0918
23.51895	333	168.1953	323.6836
23.52697	336	167.6738	324.2207
23.535	326	167.1475	324.7002
23.54303	335	166.6172	325.1221
23.55105	328	166.083	325.4854
23.55908	325	165.5479	325.791
23.5671	299	165.0078	326.0352
23.57513	335	164.4639	326.2197
23.58315	336	163.915	326.3408
23.59118	325	163.3643	326.4004
23.5992	309	162.8125	326.4004
23.60723	327	162.2588	326.3389
23.61525	285	161.7041	326.2168
23.62328	302	161.1455	326.0293
23.63131	325	160.585	325.7793
23.63933	336	160.0215	325.4668
23.64736	303	159.4561	325.0908
23.65538	324	158.8896	324.6523
23.66341	334	158.3203	324.1494
23.67143	303	157.749	323.584
23.67946	315	157.1738	322.9541
23.68748	311	156.5986	322.2627
23.69551	282	156.0195	321.5078
23.70354	300	155.4395	320.6904
23.71156	331	154.8584	319.8135
23.71959	338	154.2773	318.877
23.72761	327	153.6914	317.8779
23.73564	292	153.1006	316.8154
23.74366	320	152.5068	315.6924
23.75169	298	151.9092	314.5088
23.75971	307	151.3057	313.2637
23.76774	307	150.6992	311.9609
23.77576	307	150.0889	310.6006
23.78379	314	149.4775	309.1855
23.79181	329	148.8633	307.7158
23.79984	312	148.2441	306.1904
23.80787	295	147.624	304.6133
23.81589	291	147.002	302.9863
23.82392	320	146.377	301.3086
23.83194	340	145.751	299.584
23.83997	300	145.124	297.8135
23.84799	307	144.498	296.001
23.85602	286	143.8672	294.1406
23.86404	303	143.2354	292.2393
23.87207	316	142.6025	290.2979
23.88009	313	141.9678	288.3164
23.88812	277	141.332	286.2959
23.89614	307	140.6924	284.2383
23.90417	313	140.0469	282.1416
23.9122	302	139.4004	280.0117
23.92022	278	138.752	277.8486
23.92825	275	138.1035	275.6563
23.93627	270	137.4551	273.4365
23.9443	282	136.8018	271.1865
23.95232	317	136.1465	268.9092
23.96035	289	135.4932	266.6104
23.96837	253	134.8389	264.2891
23.9764	270	134.1846	261.9463
23.98442	248	133.5205	259.5752
23.99245	250	132.8535	257.1826
24.00047	274	132.1836	254.7715
24.0085	246	131.5127	252.3428
24.01653	258	130.8398	249.9004
24.02455	226	130.165	247.4424
24.03258	223	129.4902	244.9727
24.0406	246	128.8164	242.4941
24.04863	246	128.1396	240.0039
24.05665	244	127.4609	237.5049
24.06468	232	126.7832	235.001
24.0727	243	126.1084	232.4951
24.08073	234	125.4316	229.9824
24.08875	218	124.751	227.4658
24.09678	209	124.0703	224.9482
24.10481	242	123.3877	222.4287
24.11283	234	122.7051	219.9111
24.12086	232	122.0205	217.3955
24.12888	206	121.333	214.8809
24.13691	236	120.6445	212.3711
24.14493	202	119.9531	209.8652
24.15296	193	119.2598	207.3662
24.16098	194	118.5674	204.877
24.16901	206	117.8701	202.3945
24.17703	186	117.1729	199.9229
24.18506	194	116.4766	197.4658
24.19309	211	115.7832	195.0254
24.20111	195	115.0918	192.6016
24.20914	215	114.3926	190.1865
24.21716	184	113.6914	187.7852
24.22519	182	112.9883	185.4004
24.23321	172	112.2832	183.0303
24.24124	191	111.5771	180.6797
24.24926	179	110.8672	178.3447
24.25729	178	110.1563	176.0283
24.26532	190	109.4482	173.7354
24.27334	185	108.752	171.4766
24.28137	191	108.0566	169.2393
24.28939	158	107.3477	167.0107
24.29742	147	106.6328	164.7988
24.30544	161	105.918	162.6084
24.31347	161	105.2002	160.4395
24.32149	169	104.4844	158.2949
24.32952	152	103.7588	156.165
24.33754	170	103.0313	154.0547
24.34557	145	102.3057	151.9717
24.3536	160	101.6016	149.9336
24.36162	161	100.8945	147.916
24.36965	148	100.1719	145.9082
24.37767	152	99.44434	143.918
24.3857	139	98.71875	141.9541
24.39372	141	98.0459	140.0664
24.40175	132	97.36523	138.1963
24.40977	129	96.66699	136.333
24.4178	148	95.96191	134.4863
24.42582	127	95.25879	132.666
24.43385	124	94.54297	130.8574
24.44188	139	93.82324	129.0693
24.4499	128	93.10547	127.3096
24.45793	99	92.4248	125.6123
24.46595	107	91.74316	123.9385
24.47398	100	91.0459	122.2773
24.482	115	90.34277	120.6367
24.49003	112	89.64355	119.0273
24.49805	120	88.95703	117.4609
24.50608	104	88.27344	115.9287
24.5141	104	87.57324	114.4131
24.52213	123	86.86719	112.9268
24.53016	97	86.15234	111.4697
24.53818	106	85.43555	110.0518
24.54621	103	84.72168	108.6816
24.55423	93	84.00488	107.3594
24.56226	108	83.2793	106.083
24.57028	106	82.55762	104.8721
24.57831	87	81.85352	103.7461
24.58633	95	81.14258	102.6914
24.59436	104	80.41504	101.7051
24.60238	96	79.68066	100.8086
24.61041	119	78.94922	100.0215
24.61843	98	78.32617	99.46289
24.62646	92	77.69141	99.02441
24.63449	92	77.03516	98.71289
24.64251	92	76.36133	98.54688
24.65054	88	75.67969	98.55273
24.65856	98	74.98926	98.74414
24.66659	90	74.29492	99.14648
24.67461	89	73.60352	99.78223
24.68264	91	72.96875	100.7217
24.69066	98	72.33203	101.9229
24.69869	111	71.67773	103.3867
24.70671	89	71.01758	105.1377
24.71474	106	70.35938	107.1963
24.72276	118	69.7041	109.5732
24.73079	126	69.05176	112.2744
24.73882	123	68.38281	115.2842
24.74684	113	67.70801	118.6094
24.75487	129	67.02637	122.2461
24.76289	132	66.34277	126.1875
24.77092	131	65.66309	130.4229
24.77894	140	64.98242	134.9248
24.78697	119	64.29102	139.6572
24.79499	159	63.60352	144.6016
24.80302	161	62.94043	149.7393
24.81104	186	62.27051	154.9922
24.81907	149	61.58008	160.2998
24.8271	172	60.88184	165.6191
24.83512	179	60.1875	170.9043
24.84315	181	59.62207	176.2197
24.85117	185	59.0459	181.3604
24.8592	172	58.45313	186.2598
24.86722	188	57.83887	190.8467
24.87525	206	57.21582	195.0713
24.88327	207	56.58203	198.873
24.8913	168	55.94629	202.2021
24.89932	202	55.31348	205.0156
24.90735	198	54.74316	207.3232
24.91538	203	54.16895	209.0244
24.9234	230	53.58008	210.0771
24.93143	189	52.9873	210.4678
24.93945	209	52.39258	210.1865
24.94748	230	51.79785	209.2334
24.9555	181	51.20508	207.6152
24.96353	187	50.5957	205.3271
24.97155	190	49.97949	202.4053
24.97958	182	49.36035	198.8838
24.9876	172	48.74121	194.8057
24.99563	190	48.12598	190.2227
25.00366	226	47.50879	185.1816
25.01168	182	46.88281	179.7324
25.01971	157	46.26074	173.9482
25.02773	171	45.66602	167.918
25.03576	170	45.06543	161.6689
25.04378	149	44.44336	155.2529
25.05181	138	43.81348	148.7461
25.05983	144	43.18945	142.2197
25.06786	131	42.69922	135.8643
25.07588	131	42.19531	129.582
25.08391	127	41.68066	123.4268
25.09194	98	41.14648	117.4316
25.09996	118	40.60352	111.6475
25.10799	116	40.0498	106.1025
25.11601	102	39.49219	100.8311
25.12404	103	38.93945	95.86133
25.13206	77	38.45215	91.26855
25.14009	93	37.96191	86.99609
25.14811	77	37.45898	83.03516
25.15614	93	36.95215	79.39453
25.16417	87	36.44141	76.07129
25.17219	68	35.92871	73.05762
25.18022	72	35.41699	70.34473
25.18824	55	34.8916	67.90332
25.19627	55	34.36133	65.72656
25.20429	77	33.83105	63.80273
25.21232	53	33.30176	62.11426
25.22034	63	32.77734	60.64453
25.22837	69	32.24805	59.36523
25.23639	63	31.71191	58.25488
25.24442	57	31.18066	57.30664
25.25245	55	30.67773	56.52637
25.26047	67	30.16797	55.86133
25.2685	56	29.64063	55.28418
25.27652	54	29.10742	54.79199
25.28455	62	28.57813	54.38086
25.29257	53	28.1748	54.1582
25.3006	43	27.75879	53.97461
25.30862	67	27.33496	53.82324
25.31665	52	26.89453	53.68457
25.32467	59	26.44629	53.55859
25.3327	54	25.98828	53.43262
25.34072	57	25.52637	53.30566
25.34875	53	25.06934	53.17676
25.35678	68	24.67871	53.10156
25.3648	65	24.28711	53.00195
25.37283	61	23.88184	52.86035
25.38085	60	23.46777	52.67383
25.38888	50	23.05273	52.44336
25.3969	74	22.63086	52.15723
25.40493	59	22.20801	51.81445
25.41295	65	21.78516	51.41016
25.42098	61	21.36426	50.94238
25.429	59	20.94629	50.40723
25.43703	59	20.53125	49.80176
25.44506	62	20.12109	49.12305
25.45308	46	19.69922	48.35449
25.46111	54	19.27344	47.50293
25.46913	55	18.85156	46.5752
25.47716	59	18.45703	45.59668
25.48518	51	18.05664	44.53809
25.49321	43	17.64258	43.39258
25.50123	49	17.22363	42.1748
25.50926	47	16.81055	40.90039
25.51728	46	16.5	39.67383
25.52531	34	16.17969	38.3877
25.53333	45	15.85059	37.05176
25.54136	43	15.5127	35.67383
25.54939	41	15.17383	34.26953
25.55741	33	14.8252	32.83984
25.56544	32	14.47461	31.40039
25.57346	34	14.12793	29.96582
25.58149	42	13.83105	28.58887
25.58951	24	13.53418	27.22852
25.59754	26	13.2207	25.875
25.60556	30	12.90137	24.54492
25.61359	22	12.58594	23.25391
25.62161	30	12.2832	22.01465
25.62964	24	11.97852	20.81836
25.63766	20	11.67383	19.66797
25.64569	18	11.37012	18.56934
25.65372	16	11.06934	17.52441
25.66174	18	10.77148	16.53516
25.66977	14	10.47754	15.60059
25.67779	11	10.1748	14.70898
25.68582	13	9.870117	13.86523
25.69384	14	9.570313	13.07617
25.70187	8	9.292969	12.35645
25.70989	7	9.013672	11.67871
25.71792	10	8.724609	11.03418
25.72595	12	8.433594	10.42578
25.73397	10	8.146484	9.858398
25.742	10	7.94043	9.405273
25.75002	8	7.724609	8.974609
25.75805	6	7.512695	8.574219
25.76607	4	7.353516	8.25293
25.7741	8	7.185547	7.943359
25.78212	11	7.000977	7.638672
25.79015	7	6.810547	7.345703
25.79817	6	6.623047	7.070313
25.8062	3	6.599609	6.973633
25.81423	8	6.576172	6.887695
25.82225	8	6.552734	6.8125
25.83028	7	6.529297	6.746094
25.8383	6	6.535156	6.71582
25.84633	9	6.541016	6.692383
25.85435	7	6.546875	6.673828
25.86238	6	6.553711	6.660156
25.8704	10	6.566406	6.657227
25.87843	5	6.574219	6.652344
25.88645	5	6.571289	6.638672
25.89448	8	6.5625	6.621094
25.90251	8	6.554688	6.605469
25.91053	14	6.536133	6.582031
25.91856	7	6.509766	6.551758
25.92658	14	6.483398	6.521484
25.93461	5	6.506836	6.541016
25.94263	13	6.523438	6.555664
25.95066	7	6.535156	6.56543
25.95868	11	6.543945	6.572266
25.96671	5	6.541992	6.569336
25.97474	5	6.535156	6.560547
25.98276	6	6.524414	6.549805
25.99079	9	6.512695	6.537109
25.99881	6	6.500977	6.524414
26.00684	5	6.486328	6.508789
26.01486	5	6.462891	6.484375
26.02289	9	6.439453	6.459961
26.03091	9	6.492188	6.513672
26.03894	9	6.542969	6.563477
26.04696	5	6.576172	6.595703
26.05499	6	6.599609	6.619141
26.06301	7	6.623047	6.641602
26.07104	7	6.648438	6.666992
26.07907	3	6.666992	6.685547
26.08709	11	6.685547	6.703125
26.09512	6	6.736328	6.75293
26.10314	7	6.783203	6.800781
26.11117	11	6.818359	6.834961
26.11919	7	6.84668	6.863281
26.12722	11	6.875977	6.891602
26.13524	7	6.898438	6.914063
26.14327	9	6.917969	6.932617
26.15129	7	6.936523	6.952148
26.15932	11	6.975586	6.990234
26.16735	9	7.010742	7.025391
26.17537	13	7.042969	7.057617
26.1834	12	7.073242	7.087891
26.19142	12	7.098633	7.113281
26.19945	6	7.12207	7.135742
26.20747	11	7.142578	7.157227
26.2155	11	7.163086	7.176758
26.22352	12	7.183594	7.197266
26.23155	8	7.199219	7.213867
26.23957	6	7.211914	7.226563
26.2476	6	7.224609	7.239258
26.25562	7	7.264648	7.280273
26.26365	11	7.300781	7.316406
26.27168	5	7.333984	7.349609
26.2797	10	7.364258	7.379883
26.28773	9	7.391602	7.408203
26.29575	11	7.418945	7.435547
26.30378	9	7.445313	7.462891
26.3118	11	7.47168	7.490234
26.31983	7	7.498047	7.516602
26.32785	11	7.522461	7.542969
26.33588	13	7.547852	7.568359
26.3439	11	7.573242	7.595703
26.35193	7	7.597656	7.621094
26.35995	9	7.62207	7.646484
26.36798	9	7.644531	7.669922
26.37601	8	7.666016	7.693359
26.38403	10	7.688477	7.717773
26.39206	14	7.708984	7.740234
26.40008	7	7.728516	7.760742
26.40811	11	7.74707	7.78125
26.41613	8	7.764648	7.801758
26.42416	9	7.782227	7.821289
26.43218	16	7.797852	7.839844
26.44021	17	7.810547	7.855469
26.44823	12	7.823242	7.871094
26.45626	11	7.842773	7.893555
26.46429	5	7.860352	7.914063
26.47231	11	7.87207	7.929688
26.48034	12	7.880859	7.941406
26.48836	11	7.889648	7.954102
26.49639	13	7.912109	7.981445
26.50441	10	7.930664	8.004883
26.51244	11	7.941406	8.020508
26.52046	4	7.948242	8.032227
26.52849	11	7.955078	8.044922
26.53652	11	7.976563	8.072266
26.54454	7	7.991211	8.092773
26.55257	5	7.999023	8.107422
26.56059	10	8.000977	8.116211
26.56862	11	7.998047	8.121094
26.57664	13	7.987305	8.118164
26.58467	5	7.972656	8.111328
26.59269	8	7.958008	8.105469
26.60072	10	8.018555	8.175781
26.60874	10	8.072266	8.238281
26.61677	5	8.116211	8.291992
26.6248	6	8.152344	8.338867
26.63282	8	8.185547	8.382813
26.64085	7	8.212891	8.422852
26.64887	11	8.239258	8.460938
26.6569	9	8.264648	8.5
26.66492	10	8.307617	8.556641
26.67295	7	8.349609	8.613281
26.68097	13	8.386719	8.664063
26.689	7	8.419922	8.713867
26.69702	9	8.450195	8.759766
26.70505	15	8.477539	8.804688
26.71308	9	8.503906	8.848633
26.7211	9	8.525391	8.889648
26.72913	6	8.545898	8.929688
26.73715	13	8.563477	8.966797
26.74518	11	8.579102	9.00293
26.7532	6	8.59375	9.041016
26.76123	12	8.613281	9.083008
26.76925	14	8.62793	9.121094
26.77728	13	8.642578	9.160156
26.7853	12	8.649414	9.193359
26.79333	11	8.65332	9.222656
26.80136	10	8.650391	9.248047
26.80938	15	8.644531	9.271484
26.81741	8	8.639648	9.295898
26.82543	15	8.691406	9.37793
26.83346	12	8.738281	9.457031
26.84148	8	8.774414	9.526367
26.84951	12	8.805664	9.591797
26.85753	8	8.837891	9.658203
26.86556	11	8.873047	9.729492
26.87358	9	8.904297	9.797852
26.88161	18	8.935547	9.868164
26.88964	11	8.97168	9.943359
26.89766	15	9.008789	10.02051
26.90569	10	9.040039	10.09473
26.91371	11	9.070313	10.16699
26.92174	11	9.097656	10.23828
26.92976	13	9.124023	10.31055
26.93779	11	9.150391	10.38281
26.94581	11	9.174805	10.4541
26.95384	13	9.195313	10.52344
26.96186	7	9.213867	10.5918
26.96989	7	9.232422	10.66113
26.97791	13	9.25	10.73145
26.98594	15	9.263672	10.79785
26.99397	9	9.275391	10.8623
27.00199	6	9.286133	10.92871
27.01002	18	9.297852	10.99609
27.01804	12	9.304688	11.05957
27.02607	16	9.305664	11.12012
27.03409	12	9.305664	11.17773
27.04212	8	9.304688	11.23633
27.05014	15	9.350586	11.34277
27.05817	10	9.391602	11.44531
27.06619	8	9.427734	11.54395
27.07422	19	9.461914	11.64063
27.08224	9	9.496094	11.73828
27.09027	16	9.526367	11.83398
27.0983	7	9.556641	11.92773
27.10632	16	9.585938	12.02246
27.11435	16	9.617188	12.12012
27.12237	9	9.648438	12.21777
27.1304	19	9.678711	12.31543
27.13842	9	9.708008	12.41113
27.14645	15	9.736328	12.50586
27.15447	11	9.759766	12.59668
27.1625	18	9.782227	12.68652
27.17052	17	9.802734	12.77441
27.17855	21	9.822266	12.8623
27.18658	13	9.841797	12.94922
27.1946	9	9.860352	13.03418
27.20263	13	9.876953	13.11816
27.21065	14	9.891602	13.19922
27.21868	19	9.905273	13.2793
27.2267	20	9.919922	13.35938
27.23473	10	9.927734	13.43262
27.24275	15	9.932617	13.50195
27.25078	18	9.93457	13.56738
27.2588	12	9.935547	13.63184
27.26683	25	9.936523	13.69531
27.27486	14	9.973633	13.79395
27.28288	23	10.01074	13.89063
27.29091	13	10.04688	13.98633
27.29893	22	10.07813	14.07617
27.30696	16	10.10742	14.16211
27.31498	14	10.13379	14.24414
27.32301	14	10.15918	14.32422
27.33103	13	10.18457	14.40234
27.33906	13	10.21484	14.48242
27.34708	12	10.24414	14.5625
27.35511	12	10.27344	14.63965
27.36314	19	10.29883	14.71094
27.37116	25	10.32129	14.77832
27.37919	12	10.34277	14.84277
27.38721	15	10.36328	14.90332
27.39524	19	10.38379	14.96289
27.40326	13	10.40234	15.01758
27.41129	19	10.41992	15.07129
27.41931	24	10.43457	15.11719
27.42734	12	10.44629	15.16016
27.43537	16	10.45801	15.2002
27.44339	16	10.47559	15.24414
27.45142	13	10.49219	15.28516
27.45944	16	10.50293	15.31738
27.46747	18	10.50977	15.34375
27.47549	13	10.51465	15.36621
27.48352	14	10.51953	15.38477
27.49154	13	10.52344	15.40234
27.49957	12	10.54199	15.43066
27.50759	20	10.5752	15.47168
27.51562	15	10.6084	15.51074
27.52365	16	10.6377	15.54297
27.53167	16	10.66406	15.56934
27.5397	14	10.68848	15.59277
27.54772	25	10.71191	15.6123
27.55575	19	10.73438	15.62891
27.56377	23	10.75684	15.64258
27.5718	19	10.78125	15.65723
27.57982	17	10.80566	15.66797
27.58785	17	10.82715	15.6748
27.59587	25	10.84766	15.67871
27.6039	18	10.86719	15.67773
27.61193	16	10.88477	15.6748
27.61995	15	10.90234	15.66895
27.62798	13	10.91895	15.66016
27.636	22	10.93457	15.64844
27.64403	11	10.94824	15.63281
27.65205	15	10.96191	15.61523
27.66008	17	10.97559	15.5957
27.6681	16	10.99023	15.57617
27.67613	16	11.00488	15.55469
27.68415	17	11.0166	15.5293
27.69218	14	11.02832	15.50098
27.7002	14	11.03809	15.4707
27.70823	18	11.04785	15.4375
27.71626	27	11.05566	15.40234
27.72428	16	11.06348	15.36621
27.73231	18	11.08887	15.3457
27.74033	16	11.11426	15.32324
27.74836	17	11.1377	15.2998
27.75638	16	11.16113	15.27344
27.76441	16	11.18359	15.24609
27.77243	16	11.20508	15.21777
27.78046	13	11.22363	15.18457
27.78848	11	11.24121	15.15039
27.79651	11	11.25781	15.11328
27.80453	22	11.27344	15.07617
27.81256	15	11.28906	15.03809
27.82059	12	11.30273	14.99805
27.82861	10	11.31543	14.95605
27.83664	19	11.32813	14.91406
27.84466	13	11.3418	14.87207
27.85269	19	11.35449	14.83008
27.86071	23	11.36621	14.78613
27.86874	11	11.375	14.74023
27.87676	12	11.38379	14.69434
27.88479	21	11.39258	14.64746
27.89281	20	11.40039	14.60156
27.90084	7	11.4209	14.56738
27.90886	15	11.43945	14.53125
27.91689	11	11.45703	14.49512
27.92492	13	11.47559	14.45996
27.93294	18	11.49316	14.42383
27.94097	11	11.50684	14.38574
27.94899	11	11.51953	14.3457
27.95702	11	11.53125	14.30664
27.96504	15	11.55273	14.27734
27.97307	9	11.57227	14.24805
27.98109	11	11.58887	14.21582
27.98912	15	11.60352	14.18262
27.99715	14	11.61719	14.15137
28.00517	16	11.63379	14.12207
28.0132	19	11.64746	14.09375
28.02122	12	11.66016	14.06445
28.02925	12	11.67188	14.03613
28.03727	16	11.68359	14.00977
28.0453	7	11.69141	13.98242
28.05332	14	11.69629	13.95508
28.06135	18	11.70117	13.92969
28.06937	14	11.71387	13.91699
28.0774	6	11.72754	13.90723
28.08543	15	11.73438	13.89453
28.09345	16	11.73633	13.88184
28.10148	3	11.73926	13.87402
28.1095	9	11.75391	13.88379
28.11753	16	11.76758	13.89844
28.12555	13	11.78809	13.9248
28.13358	13	11.80176	13.95313
28.1416	8	11.81641	13.9873
28.14963	13	11.83887	14.03906
28.15765	12	11.85742	14.09473
28.16568	17	11.87109	14.15332
28.17371	16	11.88184	14.21973
28.18173	13	11.89355	14.29492
28.18976	11	11.91406	14.39063
28.19778	19	11.93164	14.49512
28.20581	9	11.94531	14.60547
28.21383	18	11.95605	14.72461
28.22186	12	11.96582	14.85547
28.22988	14	11.9834	15.00586
28.23791	13	11.99902	15.16602
28.24593	14	12.01074	15.33496
28.25396	15	12.02051	15.51465
28.26199	14	12.03125	15.70508
28.27001	16	12.03711	15.9043
28.27804	20	12.04199	16.1123
28.28606	24	12.0459	16.33105
28.29409	18	12.05664	16.56543
28.30211	16	12.06641	16.80859
28.31014	21	12.07031	17.05371
28.31816	24	12.07227	17.30273
28.32619	12	12.07324	17.55762
28.33422	13	12.0918	17.83496
28.34224	9	12.10938	18.11328
28.35027	26	12.12402	18.39063
28.35829	26	12.1377	18.66504
28.36632	16	12.15039	18.93848
28.37434	26	12.16602	19.20996
28.38237	17	12.18066	19.47559
28.39039	18	12.19434	19.7334
28.39842	14	12.2041	19.97754
28.40644	19	12.21191	20.20898
28.41447	15	12.21875	20.42578
28.42249	19	12.22461	20.62695
28.43052	23	12.23047	20.8125
28.43855	15	12.23438	20.97852
28.44657	18	12.23438	21.12109
28.4546	18	12.23438	21.24316
28.46262	19	12.24121	21.35059
28.47065	15	12.24707	21.43359
28.47867	12	12.24414	21.48438
28.4867	17	12.23633	21.50488
28.49472	23	12.22852	21.50195
28.50275	14	12.25293	21.50488
28.51077	20	12.27246	21.47754
28.5188	19	12.2793	21.41309
28.52682	14	12.28027	21.31641
28.53485	13	12.28027	21.19629
28.54288	22	12.29688	21.06934
28.5509	21	12.30859	20.91309
28.55893	18	12.31738	20.7334
28.56695	15	12.32422	20.53223
28.57498	13	12.33203	20.3125
28.583	18	12.34668	20.08398
28.59103	14	12.35742	19.83496
28.59905	12	12.3623	19.56836
28.60708	19	12.36426	19.28711
28.6151	12	12.36719	18.99707
28.62313	14	12.38086	18.71094
28.63116	12	12.38867	18.41406
28.63918	16	12.39063	18.1084
28.64721	14	12.38965	17.79785
28.65523	20	12.38867	17.48828
28.66326	9	12.38379	17.17773
28.67128	22	12.37207	16.86523
28.67931	13	12.36133	16.55859
28.68733	14	12.3623	16.27246
28.69536	21	12.35938	15.99023
28.70338	13	12.34277	15.70508
28.71141	14	12.31934	15.42383
28.71943	18	12.2959	15.1543
28.72746	11	12.33496	14.95898
28.73549	9	12.36523	14.76953
28.74351	16	12.37695	14.57422
28.75154	10	12.37891	14.38379
28.75956	16	12.38184	14.20703
28.76759	19	12.40234	14.0625
28.77561	16	12.41504	13.92383
28.78364	13	12.42676	13.79883
28.79166	18	12.44629	13.69434
28.79969	16	12.46582	13.60254
28.80772	13	12.47656	13.51367
28.81574	11	12.48145	13.43164
28.82377	10	12.48242	13.35742
28.83179	15	12.48047	13.29102
28.83982	13	12.47949	13.23633
28.84784	16	12.49414	13.20703
28.85587	17	12.50293	13.18164
28.86389	19	12.50195	13.1543
28.87192	12	12.49609	13.13086
28.87994	15	12.49023	13.11523
28.88797	11	12.48047	13.10449
28.896	11	12.46387	13.0918
28.90402	11	12.44727	13.08594
28.91205	16	12.43945	13.09473
28.92007	12	12.42578	13.10254
28.9281	12	12.39648	13.09863
28.93612	22	12.35938	13.09277
28.94415	13	12.32227	13.08984
28.95217	19	12.37305	13.17969
28.9602	15	12.41602	13.26367
28.96822	21	12.43457	13.32617
28.97625	10	12.44043	13.37891
28.98428	17	12.44629	13.43262
28.9923	17	12.46973	13.50586
29.00033	12	12.4834	13.57031
29.00835	11	12.49707	13.63477
29.01638	12	12.52051	13.70898
29.0244	15	12.54395	13.7832
29.03243	14	12.55664	13.84668
29.04045	11	12.56348	13.90234
29.04848	14	12.56543	13.95117
29.0565	15	12.56348	13.99512
29.06453	20	12.56152	14.03711
29.07256	19	12.57422	14.09082
29.08058	15	12.58105	14.13477
29.08861	12	12.5752	14.16406
29.09663	10	12.56348	14.18359
29.10466	12	12.55176	14.19922
29.11268	14	12.54492	14.2168
29.12071	15	12.52637	14.21777
29.12873	12	12.50879	14.21484
29.13676	15	12.49219	14.20996
29.14478	14	12.46777	14.19238
29.15281	27	12.42676	14.15332
29.16084	7	12.37695	14.10156
29.16886	19	12.32715	14.04492
29.17689	12	12.3916	14.09961
29.18491	14	12.44629	14.13965
29.19294	10	12.47168	14.14648
29.20096	8	12.48242	14.13379
29.20899	13	12.49316	14.11816
29.21701	16	12.51855	14.11523
29.22504	20	12.5332	14.09766
29.23306	18	12.54785	14.07715
29.24109	13	12.57617	14.06641
29.24911	11	12.60352	14.05469
29.25714	15	12.62109	14.03125
29.26517	9	12.63379	14.00098
29.27319	8	12.63574	13.95996
29.28122	18	12.63379	13.91211
29.28924	16	12.63086	13.86523
29.29727	15	12.6416	13.83105
29.30529	16	12.64551	13.79004
29.31332	18	12.63477	13.73633
29.32134	8	12.61816	13.67578
29.32937	13	12.60059	13.61719
29.33739	10	12.60449	13.58008
29.34542	15	12.59375	13.53027
29.35345	21	12.58301	13.48242
29.36147	8	12.55273	13.41797
29.3695	9	12.51367	13.3457
29.37752	16	12.45801	13.25977
29.38555	18	12.39453	13.16797
29.39357	18	12.33105	13.0791
29.4016	8	12.41992	13.14453
29.40962	14	12.49219	13.19629
29.41765	9	12.54492	13.23047
29.42567	16	12.58496	13.25488
29.4337	10	12.62012	13.27637
29.44172	12	12.64551	13.29004
29.44975	14	12.66602	13.30176
29.45778	15	12.68652	13.31641
29.4658	13	12.72852	13.35254
29.47383	16	12.76758	13.38965
29.48185	9	12.7959	13.41797
29.48988	18	12.81934	13.44238
29.4979	21	12.83594	13.46094
29.50593	22	12.84863	13.47852
29.51395	17	12.85938	13.49414
29.52198	13	12.86426	13.50684
29.53	16	12.86719	13.51758
29.53803	10	12.86133	13.52051
29.54606	15	12.84961	13.52051
29.55408	12	12.83887	13.52051
29.56211	20	12.85352	13.54688
29.57013	13	12.8584	13.56445
29.57816	13	12.86035	13.58008
29.58618	17	12.84766	13.58203
29.59421	18	12.82813	13.57617
29.60223	12	12.79492	13.55762
29.61026	13	12.75488	13.53418
29.61828	21	12.71582	13.50977
29.62631	12	12.78906	13.59961
29.63434	17	12.85156	13.67871
29.64236	16	12.8916	13.73535
29.65039	10	12.92188	13.78223
29.65841	15	12.95215	13.83008
29.66644	13	12.97461	13.87012
29.67446	20	12.99219	13.90527
29.68249	10	13.00977	13.94043
29.69051	13	13.04688	13.99512
29.69854	14	13.08203	14.04785
29.70657	16	13.10742	14.09082
29.71459	11	13.12793	14.12988
29.72262	15	13.14453	14.16406
29.73064	15	13.15723	14.19531
29.73867	16	13.16895	14.22559
29.74669	9	13.17383	14.24805
29.75472	10	13.17383	14.2666
29.76274	18	13.17285	14.2832
29.77077	17	13.16992	14.29785
29.77879	18	13.16699	14.31348
29.78682	17	13.18262	14.3457
29.79485	18	13.18945	14.37012
29.80287	13	13.19238	14.39063
29.8109	10	13.18652	14.40137
29.81892	11	13.1748	14.40723
29.82695	19	13.15234	14.40137
29.83497	24	13.12305	14.38867
29.843	17	13.09473	14.37598
29.85102	17	13.15527	14.45215
29.85905	15	13.20703	14.51953
29.86707	27	13.23926	14.56641
29.8751	13	13.2627	14.60352
29.88313	23	13.28613	14.64063
29.89115	14	13.30566	14.67383
29.89918	17	13.31934	14.7002
29.9072	17	13.33301	14.72559
29.91523	20	13.36328	14.76855
29.92325	18	13.39355	14.80859
29.93128	23	13.41309	14.83887
29.9393	15	13.42773	14.86426
29.94733	11	13.44043	14.88477
29.95535	14	13.44727	14.90039
29.96338	11	13.45117	14.91113
29.97141	16	13.4541	14.92188
29.97943	19	13.46289	14.93652
29.98746	18	13.4707	14.9502
29.99548	13	13.47852	14.96387
30.00351	13	13.4873	14.97656
30.01153	15	13.49902	14.99219
30.01956	13	13.50684	15.00293
30.02758	15	13.51172	15.01074
30.03561	22	13.51172	15.0127
30.04363	12	13.50977	15.0127
30.05166	14	13.49805	15.00195
30.05968	18	13.48145	14.98633
30.06771	18	13.46582	14.96973
30.07574	17	13.50488	15.00879
30.08376	15	13.53906	15.04199
30.09179	21	13.56543	15.06738
30.09981	18	13.58594	15.08594
30.10784	10	13.60254	15.10059
30.11586	17	13.61621	15.11133
30.12389	16	13.62793	15.12012
30.13191	11	13.63965	15.12891
30.13994	13	13.65332	15.13965
30.14796	18	13.66406	15.14648
30.15599	20	13.67285	15.15039
30.16401	19	13.67969	15.15332
30.17204	23	13.6875	15.15527
30.18007	18	13.69922	15.16309
30.18809	9	13.71094	15.16895
30.19612	20	13.71875	15.16992
30.20414	15	13.72363	15.16895
30.21217	23	13.72852	15.16797
30.22019	18	13.73145	15.16406
30.22822	11	13.73047	15.15625
30.23624	12	13.73047	15.14844
30.24427	13	13.73438	15.14453
30.25229	10	13.73828	15.1416
30.26032	13	13.7334	15.12793
30.26835	19	13.72266	15.1084
30.27637	12	13.71094	15.08887
30.2844	17	13.7373	15.10547
30.29242	7	13.7627	15.12207
30.30045	15	13.77832	15.12891
30.30847	19	13.78906	15.12988
30.3165	21	13.79297	15.12402
30.32452	10	13.79492	15.11523
30.33255	14	13.7959	15.10645
30.34057	12	13.80371	15.10449
30.3486	14	13.80566	15.09473
30.35663	18	13.80664	15.08496
30.36465	18	13.81543	15.08301
30.37268	7	13.82227	15.07813
30.3807	22	13.81641	15.06055
30.38873	17	13.80371	15.03613
30.39675	10	13.79004	15.01074
30.40478	16	13.82813	15.03711
30.4128	16	13.86035	15.05762
30.42083	13	13.87891	15.0625
30.42885	15	13.88574	15.05762
30.43688	22	13.8877	15.04688
30.44491	14	13.88086	15.02734
30.45293	9	13.87012	15.00391
30.46096	13	13.8584	14.98047
30.46898	15	13.88965	14.99805
30.47701	16	13.91699	15.01172
30.48503	25	13.93262	15.01563
30.49306	13	13.94043	15.00977
30.50108	8	13.94336	14.99902
30.50911	20	13.94043	14.9834
30.51713	5	13.93359	14.96387
30.52516	21	13.92773	14.94434
30.53319	14	13.93066	14.93457
30.54121	23	13.93457	14.9248
30.54924	18	13.93848	14.91602
30.55726	12	13.94238	14.90625
30.56529	15	13.94727	14.89844
30.57331	17	13.9502	14.8877
30.58134	13	13.94922	14.87402
30.58936	16	13.94238	14.85352
30.59739	12	13.93164	14.83008
30.60542	8	13.91211	14.79688
30.61344	20	13.88672	14.75879
30.62147	21	13.8623	14.72168
30.62949	11	13.90234	14.74902
30.63752	12	13.93555	14.76855
30.64554	22	13.95605	14.77734
30.65357	13	13.96289	14.77051
30.66159	17	13.96191	14.75684
30.66962	16	13.95215	14.73535
30.67764	21	13.93945	14.70996
30.68567	25	13.92676	14.68457
30.6937	21	13.96094	14.70703
30.70172	21	13.98926	14.72266
30.70975	25	14.00684	14.72852
30.71777	25	14.0127	14.72266
30.7258	15	14.01465	14.71191
30.73382	21	14.00879	14.69531
30.74185	17	14	14.6748
30.74987	21	13.99121	14.6543
30.7579	19	13.99609	14.64746
30.76592	19	14.00098	14.6416
30.77395	22	14.00586	14.63477
30.78197	7	14.01074	14.62891
30.79	19	14.01758	14.62402
30.79803	16	14.02344	14.61914
30.80605	14	14.02344	14.6084
30.81408	16	14.01563	14.58984
30.8221	10	14.00391	14.56738
30.83013	20	13.9834	14.53613
30.83815	8	13.95898	14.50195
30.84618	11	13.93457	14.46777
30.8542	19	13.97656	14.5
30.86223	16	14.01563	14.5293
30.87025	11	14.04883	14.55371
30.87828	17	14.06738	14.5625
30.8863	15	14.07813	14.56445
30.89433	15	14.08398	14.56055
30.90236	14	14.08691	14.55566
30.91038	9	14.08984	14.5498
30.91841	22	14.13086	14.58398
30.92643	15	14.16797	14.61328
30.93446	19	14.19434	14.63281
30.94248	18	14.21289	14.64453
30.95051	14	14.22754	14.65234
30.95853	20	14.23535	14.65527
30.96656	11	14.24023	14.65527
30.97458	15	14.24512	14.65625
30.98261	21	14.2666	14.67383
30.99063	23	14.28711	14.69238
30.99866	15	14.30859	14.71094
31.00669	16	14.32324	14.72559
31.01471	18	14.33594	14.73926
31.02274	16	14.34766	14.75195
31.03076	23	14.35742	14.76465
31.03879	11	14.36523	14.77734
31.04681	12	14.37109	14.78906
31.05484	19	14.37598	14.80176
31.06286	17	14.38086	14.81543
31.07089	18	14.38574	14.83105
31.07891	17	14.41211	14.87012
31.08694	14	14.4375	14.90918
31.09497	9	14.46191	14.9502
31.10299	16	14.47656	14.9834
31.11102	11	14.48633	15.01465
31.11904	13	14.49316	15.04395
31.12707	13	14.5	15.0752
31.13509	13	14.50586	15.1084
31.14312	24	14.52832	15.15918
31.15114	15	14.55078	15.21191
31.15917	15	14.57227	15.26563
31.1672	19	14.58691	15.31445
31.17522	17	14.59863	15.36133
31.18325	15	14.6084	15.40723
31.19127	11	14.61719	15.45313
31.1993	16	14.62598	15.5
31.20732	16	14.63965	15.55176
31.21535	13	14.65234	15.60352
31.22337	17	14.66504	15.65527
31.2314	15	14.67676	15.7041
31.23942	19	14.68652	15.75098
31.24745	13	14.69531	15.7959
31.25548	15	14.70508	15.83887
31.2635	10	14.71387	15.88086
31.27153	16	14.72656	15.92285
31.27955	8	14.73828	15.96289
31.28758	20	14.75	16
31.2956	20	14.76074	16.0332
31.30363	16	14.77148	16.0625
31.31165	20	14.78223	16.08789
31.31968	20	14.79199	16.11035
31.3277	17	14.80176	16.12891
31.33573	15	14.8125	16.14355
31.34376	16	14.82227	16.15527
31.35178	21	14.83203	16.16309
31.35981	15	14.8418	16.16797
31.36783	21	14.85254	16.1709
31.37586	14	14.86328	16.1709
31.38388	14	14.87305	16.16895
31.39191	19	14.88281	16.16406
31.39993	16	14.89258	16.1582
31.40796	20	14.90234	16.15137
31.41599	16	14.91016	16.14258
31.42401	15	14.91895	16.13574
31.43204	18	14.92676	16.12891
31.44006	21	14.93457	16.12402
31.44809	16	14.94141	16.12207
31.45611	11	14.94727	16.12207
31.46414	28	14.95215	16.12598
31.47216	21	14.95898	16.1377
31.48019	21	14.96484	16.1543
31.48821	26	14.96875	16.17773
31.49624	10	14.97266	16.20898
31.50426	12	14.97656	16.25
31.51229	17	14.98633	16.30664
31.52032	23	14.99219	16.37207
31.52834	16	14.99609	16.44727
31.53637	19	14.99902	16.53516
31.54439	21	15.00195	16.63672
31.55242	10	15.01074	16.76074
31.56044	24	15.0166	16.89648
31.56847	15	15.02148	17.0459
31.57649	16	15.02441	17.21094
31.58452	22	15.02734	17.39355
31.59254	20	15.03809	17.60059
31.60057	23	15.04688	17.82422
31.60859	23	15.05078	18.05762
31.61662	17	15.05176	18.30566
31.62465	21	15.05273	18.56836
31.63267	18	15.06641	18.85938
31.6407	18	15.07715	19.16211
31.64872	18	15.08398	19.47266
31.65675	20	15.08887	19.79199
31.66477	25	15.09277	20.12012
31.6728	21	15.09863	20.45703
31.68082	23	15.10059	20.7959
31.68885	16	15.10254	21.1377
31.69687	19	15.10742	21.48145
31.7049	26	15.11133	21.82227
31.71292	20	15.1084	22.15137
31.72095	22	15.10352	22.4707
31.72898	23	15.09863	22.7793
31.737	40	15.10645	23.08691
31.74503	23	15.11035	23.37402
31.75305	32	15.10742	23.63672
31.76108	23	15.10156	23.87598
31.7691	28	15.09473	24.0918
31.77713	23	15.1084	24.30273
31.78515	18	15.11816	24.4834
31.79318	31	15.12109	24.63086
31.8012	18	15.12012	24.74609
31.80923	35	15.11914	24.83398
31.81726	17	15.13184	24.90723
31.82528	27	15.1416	24.9502
31.83331	24	15.14453	24.95996
31.84133	26	15.14355	24.94141
31.84936	28	15.14258	24.90039
31.85738	32	15.1543	24.85156
31.86541	20	15.16211	24.78125
31.87343	23	15.16504	24.69141
31.88146	24	15.16504	24.58789
31.88948	12	15.16504	24.47656
31.89751	21	15.16895	24.36719
31.90554	23	15.16797	24.25293
31.91356	22	15.16797	24.14355
31.92159	16	15.16797	24.04492
31.92961	24	15.16797	23.95801
31.93764	27	15.16016	23.88086
31.94566	32	15.14844	23.81934
31.95369	26	15.13672	23.78223
31.96171	19	15.1416	23.79004
31.96974	26	15.1416	23.82031
31.97777	29	15.13281	23.875
31.98579	23	15.11914	23.95898
31.99382	26	15.10547	24.07715
32.00184	23	15.125	24.26465
32.00987	27	15.14063	24.48242
32.01789	33	15.14551	24.72559
32.02592	32	15.14648	24.99707
32.03394	26	15.14648	25.30078
32.04197	38	15.16113	25.64746
32.05	29	15.17383	26.01758
32.05802	27	15.17969	26.40527
32.06604	24	15.18457	26.80859
32.07407	22	15.18848	27.22559
32.0821	31	15.19043	27.65039
32.09012	37	15.19043	28.07617
32.09815	31	15.18652	28.49707
32.10617	30	15.18066	28.9082
32.1142	27	15.17578	29.30762
32.12222	21	15.17969	29.69727
32.13025	35	15.17773	30.05762
32.13828	33	15.17383	30.38672
32.1463	31	15.16797	30.67969
32.15432	22	15.16211	30.93359
32.16235	31	15.14941	31.13867
32.17038	32	15.13379	31.29199
32.1784	25	15.11719	31.39648
32.18643	35	15.11914	31.46777
32.19445	32	15.11426	31.47754
32.20248	35	15.09863	31.42285
32.2105	29	15.07813	31.30762
32.21853	26	15.05762	31.13672
32.22655	29	15.08203	30.95703
32.23458	41	15.10059	30.71973
32.2426	32	15.11328	30.42578
32.25063	33	15.12305	30.08203
32.25866	31	15.13184	29.69434
32.26668	27	15.14258	29.2666
32.27471	29	15.14941	28.7998
32.28273	26	15.15527	28.2998
32.29076	30	15.16016	27.77246
32.29878	35	15.16406	27.22168
32.30681	22	15.16504	26.65039
32.31483	28	15.16406	26.06445
32.32286	32	15.16016	25.4668
32.33088	22	15.15332	24.86426
32.33891	28	15.14648	24.2627
32.34694	20	15.14551	23.67188
32.35496	29	15.13965	23.08496
32.36299	22	15.12891	22.50586
32.37101	25	15.11621	21.94043
32.37904	25	15.10352	21.39355
32.38706	17	15.0957	20.87207
32.39509	18	15.0791	20.36426
32.40311	8	15.06348	19.88086
32.41114	19	15.0625	19.43848
32.41916	12	15.05273	19.0127
32.42719	25	15.03223	18.60254
32.43521	17	15.00684	18.21387
32.44324	18	14.98047	17.85059
32.45127	10	15.01074	17.57031
32.45929	20	15.0332	17.30762
32.46732	15	15.05566	17.06934
32.47534	20	15.07227	16.84863
32.48337	19	15.08691	16.64746
32.49139	21	15.0957	16.46094
32.49942	12	15.10156	16.29297
32.50744	18	15.10547	16.1416
32.51547	21	15.10938	16.00684
32.52349	17	15.11328	15.8877
32.53152	20	15.11621	15.78027
32.53955	16	15.11719	15.68652
32.54757	16	15.1123	15.59863
32.5556	15	15.10449	15.51758
32.56362	16	15.09668	15.44727
32.57165	26	15.09473	15.38965
32.57967	17	15.08691	15.33496
32.5877	11	15.07227	15.28027
32.59573	12	15.05371	15.22754
32.60375	12	15.03613	15.18066
32.61177	16	15.0332	15.15332
32.6198	13	15.01953	15.11816
32.62783	11	15.00586	15.08691
32.63585	18	15.00293	15.06934
32.64388	17	14.99023	15.04395
32.6519	17	14.96484	15.00879
32.65993	18	14.93359	14.96973
32.66795	19	14.90332	14.93164
32.67598	22	14.99902	15.02148
32.68401	13	15.08789	15.10645
32.69203	10	15.16504	15.17969
32.70005	16	15.23633	15.24902
32.70808	11	15.30859	15.31836
32.71611	20	15.39453	15.40234
32.72413	13	15.47363	15.47949
32.73215	17	15.5498	15.55469
32.74018	20	15.61719	15.62109
32.74821	13	15.68164	15.68457
32.75623	15	15.74316	15.74512
32.76426	24	15.80371	15.80566
32.77229	17	15.86523	15.86621
32.78031	26	15.92578	15.92676
32.78833	18	15.9834	15.98438
32.79636	17	16.04004	16.04004
32.80439	18	16.09473	16.0957
32.81241	26	16.15039	16.15039
32.82044	14	16.21094	16.21191
32.82846	12	16.27246	16.27246
32.83649	10	16.33301	16.33398
32.84451	18	16.39453	16.39453
32.85254	0	0	0
