SampleIdent               : oreas 24c
TimeMeasured              : 16/08/2017 12:59:20
Application               : <Omnian>
ConditionSet              : Omnian
Instrument                : Epsilon1
InstrumentSerial          : 672 (M-672)
TubeAnode                 : Ag 50
Detector                  : SDD5
kV                        : 50.000
mA                        : 0.100
uA                        : 100
Filter                    : Ag 100
Medium                    : Air
PeakingTimeNr             : 3
ZeroReference             : -0.006660745945
GainReference             : 0.008007249795
NoiseReference            : 0.071620985866
FanoReference             : 0.127556249499
ZeroInit                  : -0.006602666806
GainInit                  : 0.008007533848
NoiseInit                 : 0.073252178729
FanoInit                  : 0.128453314304
ZeroFit                   : -0.011056010611
GainFit                   : 0.008025202900
NoiseFit                  : 0.071389243007
FanoFit                   : 0.135180458426
NormFactor                : 1.001468539238
NormRefCounts             : 66115.265625000000
NormCurCounts             : 66018.312500000000
ROI-Fit (chan)            : 250
ROI-Fit (chan)            : 4094
Chi-square                : 1.212115049362
RefPressure               : 974.60
RefTemp                   : 29.300
MeasPressure              : 1004.90
MeasTemp                  : 31.000
Delta_hPa                 : 24.332336425781
HeliumFlow                : 0.00
LiveTime                  : 8.958785700000
TrueTime                  : 12.000495000000
FastChanLiveT             : 10.260781000000
FastChanDeadT             : 1.739714000000
DeadTime                  : 3.041709300000
DeadTimePct               : 25.347
FastChanCounts            : 638212
OutputCounts              : 556077
UnderflowCounts           : 0
OverflowCounts            : -16558
TotalCounts               : 572635
NrOfChannels              : 4096
Energy (keV)	Counts	Background	Fit
-1.105601E-02	0	0	0
-3.030808E-03	0	0	0
4.994395E-03	0	0	0
0.0130196	0	0	0
0.0210448	0	0	0
0.02907	0	0	0
3.709521E-02	0	0	0
4.512041E-02	0	0	0
5.314561E-02	0	0	0
6.117082E-02	0	0	0
6.919602E-02	0	0	0
7.722122E-02	0	0	0
8.524642E-02	0	0	0
9.327163E-02	0	0	0
0.1012968	0	0	0
0.109322	0	0	0
0.1173472	0	0	0
0.1253724	0	0	0
0.1333976	0	0	0
0.1414228	0	0	0
0.1494481	0	0	0
0.1574733	0	0	0
0.1654985	0	0	0
0.1735236	0	0	0
0.1815489	0	0	0
0.1895741	0	0	0
0.1975993	1	0	0
0.2056245	0	0	0
0.2136497	0	0	0
0.2216749	0	0	0
0.2297001	0	0	0
0.2377253	0	0	0
0.2457505	0	0	0
0.2537757	0	0	0
0.2618009	0	0	0
0.2698261	0	0	0
0.2778513	0	0	0
0.2858765	0	0	0
0.2939017	0	0	0
0.3019269	0	0	0
0.3099521	0	0	0
0.3179773	0	0	0
0.3260025	0	0	0
0.3340277	0	0	0
0.3420529	0	0	0
0.3500781	0	0	0
0.3581033	0	0	0
0.3661285	0	0	0
0.3741537	0	0	0
0.3821789	0	0	0
0.3902041	0	0	0
0.3982293	0	0	0
0.4062545	0	0	0
0.4142797	0	0	0
0.422305	0	0	0
0.4303302	0	0	0
0.4383554	0	0	0
0.4463806	0	0	0
0.4544058	0	0	0
0.462431	0	0	0
0.4704562	0	0	0
0.4784814	0	0	0
0.4865066	0	0	0
0.4945318	0	0	0
0.502557	1	0	0
0.5105821	0	0	0
0.5186074	0	0	0
0.5266326	0	0	0
0.5346578	0	0	0
0.542683	1	0	0
0.5507082	2	0	0
0.5587334	1	0	0
0.5667586	2	0	0
0.5747838	4	0	0
0.582809	3	0	0
0.5908342	4	0	0
0.5988594	2	0	0
0.6068846	3	0	0
0.6149098	5	0	0
0.622935	11	0	0
0.6309602	10	0	0
0.6389854	7	0	0
0.6470106	8	0	0
0.6550359	11	0	0
0.663061	18	0	0
0.6710863	12	0	0
0.6791114	15	0	0
0.6871367	21	0	0
0.6951618	16	0	0
0.703187	18	0	0
0.7112123	21	0	0
0.7192374	23	0	0
0.7272627	21	0	0
0.7352878	24	0	0
0.7433131	34	0	0
0.7513382	16	0	0
0.7593635	30	0	0
0.7673886	26	0	0
0.7754139	24	0	0
0.7834391	34	0	0
0.7914643	38	0	0
0.7994895	33	0	0
0.8075147	38	0	0
0.8155399	41	0	0
0.8235651	40	0	0
0.8315903	45	0	0
0.8396155	38	0	0
0.8476407	45	0	0
0.8556659	35	0	0
0.8636911	44	0	0
0.8717163	33	0	0
0.8797415	38	0	0
0.8877667	46	0	0
0.8957919	50	0	0
0.9038171	54	0	0
0.9118423	35	0	0
0.9198675	38	0	0
0.9278927	60	0	0
0.9359179	47	0	0
0.9439431	38	0	0
0.9519683	41	0	0
0.9599935	43	0	0
0.9680188	45	0	0
0.9760439	49	0	0
0.9840692	47	0	0
0.9920943	41	0	0
1.00012	37	0	0
1.008145	43	0	0
1.01617	29	0	0
1.024195	57	0	0
1.03222	44	0	0
1.040246	49	0	0
1.048271	38	0	0
1.056296	34	0	0
1.064321	50	0	0
1.072346	40	0	0
1.080372	43	0	0
1.088397	34	0	0
1.096422	51	0	0
1.104447	58	0	0
1.112472	47	0	0
1.120498	40	0	0
1.128523	58	0	0
1.136548	47	0	0
1.144573	46	0	0
1.152598	53	0	0
1.160624	49	0	0
1.168649	39	0	0
1.176674	43	0	0
1.184699	39	0	0
1.192724	44	0	0
1.20075	44	0	0
1.208775	43	0	0
1.2168	44	0	0
1.224825	41	0	0
1.23285	45	0	0
1.240876	47	0	0
1.248901	44	0	0
1.256926	28	0	0
1.264951	43	0	0
1.272976	41	0	0
1.281002	35	0	0
1.289027	31	0	0
1.297052	43	0	0
1.305077	37	0	0
1.313102	31	0	0
1.321128	41	0	0
1.329153	40	0	0
1.337178	37	0	0
1.345203	47	0	0
1.353228	50	0	0
1.361254	41	0	0
1.369279	48	0	0
1.377304	36	0	0
1.385329	32	0	0
1.393355	37	0	0
1.40138	41	0	0
1.409405	40	0	0
1.41743	36	0	0
1.425455	42	0	0
1.433481	47	0	0
1.441506	48	0	0
1.449531	45	0	0
1.457556	53	0	0
1.465581	47	0	0
1.473606	38	0	0
1.481632	45	0	0
1.489657	41	0	0
1.497682	49	0	0
1.505707	36	0	0
1.513733	45	0	0
1.521758	49	0	0
1.529783	38	0	0
1.537808	26	0	0
1.545833	30	0	0
1.553859	44	0	0
1.561884	36	0	0
1.569909	46	0	0
1.577934	33	0	0
1.585959	44	0	0
1.593985	35	0	0
1.60201	38	0	0
1.610035	39	0	0
1.61806	37	0	0
1.626085	31	0	0
1.634111	28	0	0
1.642136	35	0	0
1.650161	27	0	0
1.658186	34	0	0
1.666211	36	0	0
1.674237	47	0	0
1.682262	43	0	0
1.690287	51	0	0
1.698312	46	0	0
1.706337	53	0	0
1.714363	40	0	0
1.722388	50	0	0
1.730413	59	0	0
1.738438	49	0	0
1.746463	59	0	0
1.754489	57	0	0
1.762514	51	0	0
1.770539	47	0	0
1.778564	45	0	0
1.786589	41	0	0
1.794615	44	0	0
1.80264	32	0	0
1.810665	26	0	0
1.81869	49	0	0
1.826715	39	0	0
1.834741	26	0	0
1.842766	27	0	0
1.850791	26	0	0
1.858816	36	0	0
1.866841	36	0	0
1.874867	33	0	0
1.882892	37	0	0
1.890917	24	0	0
1.898942	33	0	0
1.906968	50	0	0
1.914993	39	0	0
1.923018	25	0	0
1.931043	30	0	0
1.939068	46	0	0
1.947093	39	0	0
1.955119	35	0	0
1.963144	23	0	0
1.971169	27	0	0
1.979194	28	0	0
1.987219	39	0	0
1.995245	35	29.10449	33.67969
2.00327	31	28.83203	32.62109
2.011295	36	28.55469	31.63379
2.01932	32	28.25098	30.71094
2.027345	32	27.93262	29.87012
2.035371	25	27.60547	29.11133
2.043396	24	27.26758	28.42578
2.051421	26	26.92578	27.80957
2.059446	29	26.57422	27.24512
2.067472	25	26.21973	26.72656
2.075497	32	25.86426	26.24805
2.083522	26	25.51074	25.80273
2.091547	21	25.15918	25.38281
2.099572	34	24.94727	25.12109
2.107598	16	24.72461	24.86133
2.115623	22	24.50195	24.61328
2.123648	22	24.29004	24.38379
2.131673	33	24.06348	24.14746
2.139698	16	23.83105	23.91211
2.147724	27	23.58789	23.67383
2.155749	18	23.3418	23.43945
2.163774	31	23.0957	23.21582
2.171799	27	22.85449	23.00781
2.179824	27	22.60156	22.7998
2.18785	28	22.35059	22.60645
2.195875	25	22.14453	22.4707
2.2039	26	21.92773	22.33594
2.211925	13	21.71289	22.21191
2.21995	17	21.49121	22.08594
2.227976	21	21.25488	21.94727
2.236001	28	21.01074	21.79297
2.244026	23	20.76367	21.625
2.252051	21	20.51758	21.44238
2.260077	16	20.25098	21.21973
2.268102	18	19.97363	20.9668
2.276127	21	19.69922	20.69629
2.284152	28	19.57324	20.55566
2.292177	21	19.43359	20.38672
2.300202	21	19.26074	20.1748
2.308228	19	19.07227	19.93945
2.316253	16	18.88477	19.70117
2.324278	23	18.75781	19.52246
2.332303	11	18.61816	19.33105
2.340328	31	18.4502	19.11035
2.348354	16	18.26855	18.87695
2.356379	11	18.08691	18.64355
2.364404	24	17.91406	18.41895
2.372429	26	17.74121	18.19629
2.380455	23	17.56641	17.97363
2.38848	22	17.3916	17.75391
2.396505	23	17.20215	17.52539
2.40453	13	17.00781	17.29492
2.412555	16	16.81445	17.07129
2.42058	16	16.62402	16.85547
2.428606	22	16.42773	16.6377
2.436631	10	16.19141	16.38281
2.444656	16	15.93555	16.11133
2.452681	13	15.68262	15.84277
2.460706	13	15.68164	15.8291
2.468732	18	15.66895	15.80469
2.476757	15	15.65723	15.78418
2.484782	15	15.67969	15.80371
2.492807	18	15.70215	15.8291
2.500833	20	15.71387	15.85449
2.508858	12	15.7207	15.88965
2.516883	15	15.72363	15.9375
2.524908	19	15.72363	16.00488
2.532933	18	15.72266	16.09668
2.540958	22	15.71582	16.21094
2.548984	16	15.70703	16.35059
2.557009	23	15.69824	16.51953
2.565034	18	15.69531	16.71777
2.573059	8	15.69043	16.93066
2.581084	15	15.6748	17.13965
2.58911	17	15.6543	17.33789
2.597135	14	15.63281	17.51758
2.60516	22	15.62109	17.67383
2.613185	22	15.60645	17.78516
2.621211	22	15.58008	17.83496
2.629236	26	15.54785	17.8252
2.637261	14	15.5166	17.76367
2.645286	18	15.49609	17.67285
2.653311	15	15.47656	17.55176
2.661337	13	15.44336	17.40332
2.669362	27	15.4043	17.25195
2.677387	11	15.36621	17.11914
2.685412	14	15.3252	17.0166
2.693437	20	15.2793	16.94922
2.701463	17	15.2334	16.92383
2.709488	16	15.18457	16.93652
2.717513	14	15.13477	16.97949
2.725538	28	15.06445	17.02148
2.733563	17	14.9834	17.05859
2.741589	17	14.90332	17.08496
2.749614	16	14.8877	17.15137
2.757639	13	14.87305	17.18164
2.765664	28	14.83691	17.14844
2.77369	22	14.79199	17.05957
2.781715	20	14.7334	16.91309
2.78974	15	14.66699	16.72363
2.797765	18	14.59668	16.50488
2.80579	15	14.51953	16.26855
2.813815	18	14.43945	16.03613
2.821841	26	14.32813	15.79883
2.829866	10	14.20117	15.59375
2.837891	11	14.07617	15.46289
2.845916	13	14.12598	15.60645
2.853941	16	14.16602	15.86914
2.861967	13	14.15332	16.24219
2.869992	18	14.11523	16.7832
2.878017	20	14.07715	17.55078
2.886042	18	14.02148	18.55371
2.894068	20	13.9502	19.80859
2.902093	20	13.87891	21.33105
2.910118	23	13.8623	23.15527
2.918143	31	13.83887	25.17773
2.926168	25	13.79883	27.31738
2.934193	30	13.75195	29.48828
2.942219	33	13.69238	31.57227
2.950244	36	13.62695	33.4502
2.958269	38	13.55859	35.00293
2.966294	23	13.48926	36.12207
2.974319	34	13.41992	36.72363
2.982345	36	13.3418	36.75293
2.99037	33	13.26074	36.21094
2.998395	44	13.16797	35.12988
3.00642	45	13.06055	33.58789
3.014446	31	12.94531	31.7041
3.022471	25	12.82129	29.60938
3.030496	40	12.69336	27.45117
3.038521	30	12.56641	25.36621
3.046546	28	12.43945	23.47168
3.054571	23	12.30273	21.85059
3.062597	17	12.16699	20.57324
3.070622	22	12.24512	19.88477
3.078647	21	12.31348	19.55957
3.086672	8	12.33203	19.53125
3.094697	17	12.32715	19.77246
3.102723	19	12.32129	20.23926
3.110748	23	12.29102	20.83008
3.118773	13	12.24805	21.47266
3.126798	19	12.20508	22.10156
3.134824	28	12.17676	22.66309
3.142849	19	12.14648	23.09082
3.150874	30	12.10547	23.34668
3.158899	20	12.05273	23.43066
3.166924	24	11.99316	23.37207
3.17495	34	11.92676	23.23047
3.182975	28	11.8457	23.07324
3.191	27	11.75488	23.00684
3.199025	28	11.66113	23.14355
3.20705	26	11.56445	23.5957
3.215075	25	11.46875	24.46387
3.223101	26	11.36523	25.81641
3.231126	30	11.25781	27.70117
3.239151	27	11.15039	30.12207
3.247176	31	11.02246	33.01074
3.255202	32	10.88281	36.27344
3.263227	41	10.73828	39.76367
3.271252	58	10.5918	43.29199
3.279277	43	10.44629	46.63965
3.287302	48	10.39648	49.67188
3.295328	51	10.46582	52.19824
3.303353	65	10.52734	53.90918
3.311378	64	10.55273	54.65332
3.319403	59	10.55957	54.39453
3.327428	55	10.56055	53.16504
3.335454	39	10.55957	51.06055
3.343479	58	10.55176	48.22754
3.351504	47	10.52832	44.85352
3.359529	48	10.49805	41.16113
3.367554	29	10.45996	37.36328
3.37558	31	10.41797	33.65625
3.383605	17	10.36035	30.18359
3.39163	27	10.29492	27.0625
3.399655	21	10.22656	24.36035
3.407681	23	10.14355	22.08398
3.415706	21	10.05469	20.22461
3.423731	25	9.958008	18.7373
3.431756	19	9.856445	17.56543
3.439781	15	9.755859	16.65234
3.447806	20	9.649414	15.93359
3.455832	20	9.541016	15.36816
3.463857	13	9.432617	14.92773
3.471882	16	9.324219	14.60156
3.479907	13	9.182617	14.36328
3.487932	11	9.025391	14.26074
3.495958	8	8.861328	14.35742
3.503983	11	8.699219	14.74707
3.512008	23	8.764648	15.77637
3.520033	20	8.920898	17.47949
3.528059	26	9.0625	19.98047
3.536084	23	9.166992	23.56543
3.544109	32	9.25293	28.64551
3.552134	31	9.338867	35.72754
3.560159	43	9.408203	45.37598
3.568184	55	9.47168	58.25195
3.57621	65	9.529297	75.04688
3.584235	96	9.583984	96.42578
3.59226	109	9.637695	122.9482
3.600285	170	9.667969	154.9443
3.60831	168	9.685547	192.4668
3.616336	228	9.689453	235.1436
3.624361	283	9.685547	282.1221
3.632386	321	9.682617	332.0293
3.640411	367	9.682617	382.9863
3.648437	418	9.682617	432.6963
3.656462	500	9.666016	478.5938
3.664487	529	9.640625	518.0898
3.672512	569	9.616211	548.7832
3.680537	587	9.59082	568.7002
3.688563	568	9.560547	576.501
3.696588	567	9.508789	571.6221
3.704613	530	9.446289	554.375
3.712638	544	9.37793	525.8828
3.720663	471	9.298828	487.9492
3.728688	461	9.212891	442.8916
3.736714	394	9.12793	393.2959
3.744739	338	9.270508	341.9893
3.752764	289	9.410156	291.1426
3.760789	233	9.50293	242.748
3.768815	173	9.573242	198.377
3.77684	153	9.637695	159.0742
3.784865	131	9.673828	125.3359
3.79289	98	9.696289	97.25293
3.800915	66	9.71875	74.56836
3.808941	64	9.78125	56.80859
3.816966	45	9.841797	43.28223
3.824991	41	9.881836	33.27344
3.833016	27	9.912109	26.11914
3.841041	31	9.928711	21.20898
3.849066	18	9.9375	18.0459
3.857092	19	9.947266	16.24414
3.865117	17	9.946289	15.50586
3.873142	16	9.939453	15.64844
3.881167	30	9.919922	16.5625
3.889193	38	9.894531	18.21582
3.897218	32	9.869141	20.62305
3.905243	26	9.857422	23.8291
3.913268	38	9.839844	27.85352
3.921293	43	9.808594	32.70703
3.929319	44	9.765625	38.37695
3.937344	46	9.717773	44.7998
3.945369	53	9.646484	51.82422
3.953394	65	9.563477	59.25879
3.961419	80	9.480469	66.84082
3.969445	83	9.550781	74.39648
3.97747	67	9.606445	81.39551
3.985495	100	9.65332	87.47559
3.99352	99	9.695313	92.29297
4.001545	88	9.729492	95.55859
4.009571	117	9.751953	97.06543
4.017596	87	9.761719	96.71973
4.025621	99	9.764648	94.54883
4.033646	97	9.761719	90.69141
4.041671	97	9.755859	85.3877
4.049696	92	9.748047	78.95215
4.057722	74	9.739258	71.74512
4.065747	65	9.729492	64.13867
4.073772	55	9.71875	56.48438
4.081798	53	9.708008	49.09277
4.089823	55	9.682617	42.19434
4.097848	41	9.650391	35.9707
4.105873	32	9.618164	30.53125
4.113898	20	9.625	25.9502
4.121923	17	9.631836	22.16797
4.129949	29	9.630859	19.11816
4.137974	17	9.625977	16.71875
4.145999	21	9.619141	14.87109
4.154024	11	9.608398	13.47461
4.162049	12	9.588867	12.42871
4.170074	9	9.56543	11.65527
4.1781	10	9.536133	11.08105
4.186125	8	9.50293	10.65527
4.19415	11	9.470703	10.33691
4.202176	9	9.436523	10.09473
4.210201	15	9.398438	9.901367
4.218226	12	9.359375	9.746094
4.226251	17	9.320313	9.619141
4.234276	11	9.272461	9.505859
4.242301	10	9.22168	9.405273
4.250327	13	9.169922	9.319336
4.258352	13	9.117188	9.24707
4.266377	6	9.107422	9.232422
4.274402	12	9.072266	9.212891
4.282427	16	9.026367	9.205078
4.290453	8	8.961914	9.21582
4.298478	16	8.890625	9.270508
4.306503	14	8.814453	9.398438
4.314528	8	8.734375	9.636719
4.322554	10	8.652344	10.04102
4.330579	14	8.571289	10.68848
4.338604	18	8.676758	11.8623
4.346629	20	8.78125	13.50488
4.354654	9	8.842773	15.73242
4.362679	26	8.882813	18.75977
4.370705	23	8.922852	22.83008
4.37873	32	8.947266	28.17188
4.386755	23	8.961914	35.04395
4.39478	39	8.976563	43.69531
4.402806	33	9.022461	54.36133
4.410831	65	9.06543	67.13867
4.418856	89	9.098633	82.05371
4.426881	83	9.126953	99.01074
4.434906	131	9.145508	117.7471
4.442932	151	9.160156	137.8369
4.450957	168	9.163086	158.6758
4.458982	166	9.162109	179.5195
4.467007	194	9.158203	199.5117
4.475032	213	9.146484	217.7354
4.483057	264	9.132813	233.2979
4.491083	262	9.109375	245.3887
4.499108	282	9.078125	253.3711
4.507133	250	9.042969	256.834
4.515159	274	8.999023	255.6279
4.523184	264	8.951172	249.8936
4.531209	239	8.901367	240.0381
4.539234	220	8.851563	226.7002
4.547259	188	8.800781	210.6895
4.555285	192	8.771484	192.9316
4.56331	174	8.817383	174.4014
4.571335	148	8.863281	155.8877
4.57936	119	8.873047	138.0967
4.587385	127	8.863281	121.627
4.59541	112	8.84375	106.875
4.603436	81	8.819336	94.04883
4.611461	81	8.793945	83.18262
4.619486	92	8.78125	74.17188
4.627512	55	8.804688	66.82422
4.635537	70	8.822266	60.81445
4.643562	54	8.826172	55.83496
4.651587	54	8.823242	51.60156
4.659612	46	8.8125	47.86035
4.667637	43	8.798828	44.41406
4.675663	50	8.783203	41.12305
4.683688	42	8.760742	37.90332
4.691713	42	8.736328	34.72559
4.699738	29	8.705078	31.59473
4.707763	41	8.669922	28.55176
4.715788	27	8.634766	25.64941
4.723814	28	8.604492	22.94824
4.731839	25	8.569336	20.49219
4.739864	23	8.533203	18.32324
4.74789	20	8.496094	16.47656
4.755915	18	8.444336	14.95996
4.76394	22	8.386719	13.79395
4.771965	21	8.319336	12.9834
4.77999	9	8.248047	12.54102
4.788015	14	8.176758	12.48145
4.796041	18	8.129883	12.84082
4.804066	19	8.083008	13.6123
4.812091	15	8.011719	14.79102
4.820116	24	7.929688	16.40918
4.828141	21	7.84668	18.49414
4.836166	24	7.858398	21.1416
4.844192	30	7.865234	24.24023
4.852217	32	7.854492	27.74316
4.860242	37	7.835938	31.5957
4.868268	36	7.817383	35.71582
4.876293	45	7.786133	39.96777
4.884318	45	7.746094	44.20703
4.892343	52	7.701172	48.27051
4.900368	52	7.650391	51.98145
4.908393	51	7.597656	55.16797
4.916419	59	7.529297	57.65527
4.924444	67	7.452148	59.32227
4.932469	59	7.375977	60.08398
4.940494	43	7.335938	59.93359
4.948519	63	7.282227	58.8252
4.956544	64	7.204102	56.80566
4.96457	47	7.113281	53.98926
4.972595	57	7.022461	50.52734
4.98062	48	6.962891	46.61426
4.988646	56	6.883789	42.375
4.996671	31	6.771484	37.96973
5.004696	30	6.643555	33.57617
5.012721	26	6.516602	29.35059
5.020746	19	6.421875	25.43359
5.028771	24	6.327148	21.87402
5.036797	13	6.228516	18.71484
5.044822	17	6.128906	15.97754
5.052847	20	6.030273	13.66016
5.060872	17	6.089844	11.89453
5.068897	10	6.137695	10.47656
5.076922	10	6.163086	9.348633
5.084948	7	6.176758	8.476563
5.092973	16	6.191406	7.823242
5.100998	9	6.185547	7.328125
5.109024	12	6.165039	6.956055
5.117049	13	6.137695	6.686523
5.125074	13	6.099609	6.488281
5.133099	16	6.055664	6.345703
5.141124	6	5.975586	6.217773
5.149149	13	5.87793	6.110352
5.157175	12	5.78125	6.039063
5.1652	8	5.769531	6.083008
5.173225	15	5.734375	6.135742
5.18125	13	5.649414	6.170898
5.189275	10	5.539063	6.216797
5.1973	8	5.429688	6.303711
5.205326	15	5.34082	6.452148
5.213351	13	5.227539	6.624023
5.221376	10	5.084961	6.81543
5.229402	16	4.928711	7.046875
5.237427	15	4.775391	7.334961
5.245452	16	4.62793	7.686523
5.253477	9	4.477539	8.095703
5.261502	11	4.329102	8.570313
5.269527	13	4.236328	9.166992
5.277553	18	4.163086	9.854492
5.285578	12	4.253906	10.7832
5.293603	11	4.328125	11.77734
5.301628	17	4.388672	12.84473
5.309653	26	4.435547	13.99121
5.317679	17	4.476563	15.22168
5.325704	20	4.486328	16.50781
5.333729	18	4.482422	17.85156
5.341754	18	4.477539	19.24609
5.34978	12	4.458008	20.64551
5.357805	26	4.426758	22.01465
5.36583	19	4.354492	23.27637
5.373855	21	4.262695	24.39746
5.38188	20	4.171875	25.34668
5.389905	26	4.173828	26.16113
5.397931	35	4.154297	26.68164
5.405956	24	4.079102	26.83691
5.413981	23	3.977539	26.63379
5.422006	25	3.875977	26.09473
5.430032	18	3.74707	25.20215
5.438057	22	3.597656	23.99121
5.446082	23	3.435547	22.51172
5.454107	15	3.266602	20.82422
5.462132	24	3.097656	18.99512
5.470158	16	2.916016	17.07324
5.478183	23	2.731445	15.13281
5.486208	17	2.552734	13.23535
5.494233	11	2.503906	11.55273
5.502258	10	2.460938	9.998047
5.510283	9	2.563477	8.736328
5.518309	18	2.646484	7.617188
5.526334	15	2.730469	6.666016
5.534359	16	2.796875	5.861328
5.542385	16	2.853516	5.199219
5.55041	12	2.882813	4.648438
5.558435	9	2.898438	4.206055
5.56646	20	2.914063	3.866211
5.574485	11	2.914063	3.597656
5.58251	16	2.898438	3.382813
5.590536	8	2.844727	3.183594
5.598561	8	2.771484	3.007813
5.606586	8	2.699219	2.865234
5.614611	7	2.700195	2.820313
5.622636	8	2.683594	2.777344
5.630661	10	2.613281	2.695313
5.638687	8	2.517578	2.599609
5.646712	10	2.423828	2.519531
5.654737	12	2.290039	2.414063
5.662763	9	2.136719	2.307617
5.670788	6	1.976563	2.219727
5.678813	17	1.814453	2.165039
5.686838	11	1.655273	2.164063
5.694863	9	1.486328	2.223633
5.702888	16	1.319336	2.380859
5.710914	15	1.161133	2.676758
5.718939	13	1.140625	3.282227
5.726964	8	1.121094	4.110352
5.734989	17	1.213867	5.332031
5.743014	13	1.291992	6.885742
5.75104	18	1.37207	8.860352
5.759065	10	1.443359	11.31836
5.76709	21	1.500977	14.32617
5.775115	26	1.540039	17.94043
5.783141	33	1.570313	22.21777
5.791166	23	1.599609	27.18945
5.799191	32	1.613281	32.83008
5.807216	36	1.616211	39.09863
5.815241	50	1.583984	45.88184
5.823267	56	1.535156	53.0625
5.831292	65	1.487305	60.47852
5.839317	68	1.486328	67.95703
5.847342	83	1.470703	75.1875
5.855367	66	1.410156	81.87402
5.863392	77	1.328125	87.77344
5.871418	87	1.25	92.65723
5.879443	92	1.134766	96.27051
5.887468	105	1.006836	98.46582
5.895494	80	0.8779297	99.14941
5.903519	84	0.75	98.28809
5.911544	83	0.6298828	95.92383
5.919569	82	0.5058594	92.1543
5.927594	74	0.390625	87.15723
5.935619	88	0.2900391	81.15625
5.943645	71	0.2851563	74.48242
5.95167	61	0.2802734	67.30371
5.959695	71	0.3378906	59.94629
5.96772	62	0.3886719	52.58594
5.975745	55	0.4433594	45.44922
5.98377	47	0.5019531	38.71289
5.991796	46	0.5488281	32.49707
5.999821	31	0.5859375	26.89258
6.007846	29	0.6181641	21.95117
6.015872	28	0.6494141	17.69043
6.023897	21	0.6679688	14.07617
6.031922	25	0.6796875	11.07227
6.039947	13	0.6650391	8.601563
6.047972	14	0.6376953	6.609375
6.055997	25	0.6113281	5.039063
6.064023	21	0.6162109	3.862305
6.072048	28	0.6132813	2.961914
6.080073	15	0.578125	2.292969
6.088098	27	0.5292969	1.795898
6.096123	31	0.4755859	1.46875
6.104148	19	0.3935547	1.277344
6.112174	14	0.3056641	1.257813
6.120199	30	0.2226563	1.461914
6.128224	22	0.1503906	1.975586
6.13625	23	9.179688E-02	2.94043
6.144275	27	4.296875E-02	4.563477
6.1523	39	1.074219E-02	7.173828
6.160325	33	0	11.23926
6.16835	61	0	17.4082
6.176375	54	0	26.58301
6.184401	76	0.0078125	40.00977
6.192426	89	2.636719E-02	59.33105
6.200451	123	5.566406E-02	86.67383
6.208476	138	9.277344E-02	124.7178
6.216501	178	0.1308594	176.7705
6.224526	261	0.1630859	246.7969
6.232552	345	0.1923828	339.4238
6.240577	434	0.2246094	459.8662
6.248602	538	0.2773438	613.7852
6.256628	750	0.3291016	807.0078
6.264653	941	0.3740234	1045.238
6.272678	1275	0.4130859	1333.619
6.280703	1560	0.4345703	1676.201
6.288728	1955	0.4472656	2075.402
6.296753	2389	0.4443359	2531.387
6.304779	2916	0.4277344	3041.557
6.312804	3344	0.40625	3600.104
6.320829	4160	0.3769531	4197.736
6.328854	4667	0.3427734	4821.655
6.336879	5356	0.2890625	5455.777
6.344905	6046	0.2304688	6081.318
6.35293	6600	0.1738281	6677.592
6.360955	7019	0.1191406	7223.09
6.36898	7790	7.324219E-02	7696.754
6.377006	8137	3.417969E-02	8079.301
6.385031	8524	8.789063E-03	8354.537
6.393056	8534	0	8510.484
6.401081	8801	0	8540.236
6.409106	8745	0.0078125	8442.487
6.417131	8234	2.929688E-02	8221.624
6.425157	8003	0.0625	7887.389
6.433182	7760	9.570313E-02	7454.162
6.441207	7071	0.1298828	6939.965
6.449232	6415	0.1621094	6365.192
6.457258	5740	0.1943359	5751.295
6.465283	5091	0.2294922	5119.465
6.473308	4429	0.2695313	4489.46
6.481333	3876	0.3085938	3878.652
6.489358	3292	0.3466797	3301.36
6.497384	2648	0.3789063	2768.469
6.505409	2241	0.3974609	2287.342
6.513434	1823	0.4101563	1862.01
6.521459	1484	0.4013672	1493.496
6.529484	1077	0.3847656	1180.369
6.537509	939	0.3613281	919.2754
6.545535	626	0.3339844	705.5264
6.55356	499	0.3056641	533.6445
6.561585	388	0.2558594	397.8115
6.569611	303	0.2011719	292.3018
6.577636	194	0.1494141	211.7178
6.585661	171	0.1025391	151.1836
6.593686	111	6.347656E-02	106.4473
6.601711	105	2.929688E-02	73.90918
6.609736	76	0.0078125	50.61719
6.617762	81	0	34.20703
6.625787	49	0	22.81738
6.633812	41	0	15.02539
6.641837	38	8.789063E-03	9.779297
6.649862	43	3.027344E-02	6.307617
6.657887	34	6.347656E-02	4.048828
6.665913	28	0.1025391	2.603516
6.673938	27	0.1445313	1.698242
6.681963	32	0.1835938	1.138672
6.689989	35	0.2216797	0.8027344
6.698014	33	0.2626953	0.6142578
6.706039	23	0.3085938	0.5195313
6.714064	37	0.3574219	0.4833984
6.722089	34	0.3964844	0.4736328
6.730114	25	0.4316406	0.4873047
6.73814	24	0.4560547	0.4960938
6.746165	41	0.4609375	0.5146484
6.75419	35	0.4570313	0.5371094
6.762215	30	0.4443359	0.5703125
6.77024	26	0.4277344	0.6289063
6.778265	21	0.4111328	0.7314453
6.786291	31	0.3789063	0.8896484
6.794316	40	0.3408203	1.145508
6.802341	42	0.3046875	1.558594
6.810367	33	0.2636719	2.196289
6.818392	38	0.2236328	3.164063
6.826417	51	0.1796875	4.59668
6.834442	58	0.1376953	6.686523
6.842467	47	0.1015625	9.680664
6.850492	71	9.960938E-02	13.92383
6.858518	73	9.863281E-02	19.77539
6.866543	84	0.1533203	27.77832
6.874568	101	0.2119141	38.46289
6.882593	121	0.2792969	52.51172
6.890618	136	0.3417969	70.68066
6.898643	162	0.4052734	93.8125
6.906669	183	0.4570313	122.7783
6.914694	216	0.5019531	158.4629
6.922719	268	0.5498047	201.6973
6.930745	322	0.6123047	253.1934
6.93877	399	0.6748047	313.4268
6.946795	430	0.7246094	382.5918
6.95482	523	0.765625	460.5342
6.962845	643	0.796875	546.6494
6.97087	688	0.8056641	639.8379
6.978896	768	0.8046875	738.5049
6.986921	870	0.7929688	840.5371
6.994946	971	0.7763672	943.3682
7.002971	1055	0.7597656	1044.062
7.010996	1187	0.7246094	1139.413
7.019022	1279	0.6816406	1226.17
7.027047	1311	0.6396484	1301.175
7.035072	1367	0.5947266	1361.55
7.043097	1420	0.5458984	1404.895
7.051123	1472	0.4912109	1429.434
7.059148	1430	0.4345703	1434.151
7.067173	1396	0.3818359	1418.854
7.075198	1400	0.3759766	1384.219
7.083223	1301	0.3701172	1331.627
7.091249	1342	0.4511719	1263.282
7.099274	1202	0.5292969	1181.769
7.107299	1057	0.6123047	1090.143
7.115324	935	0.6875	991.6318
7.123349	846	0.7587891	889.4854
7.131374	690	0.8115234	786.7627
7.1394	666	0.8544922	686.2363
7.147425	551	0.8984375	590.2559
7.15545	506	0.9736328	500.7002
7.163476	398	1.047852	418.875
7.171501	336	1.102539	345.5869
7.179526	261	1.146484	281.209
7.187551	213	1.182617	225.7002
7.195576	156	1.197266	178.6826
7.203601	137	1.202148	139.5576
7.211627	108	1.194336	107.5518
7.219652	75	1.180664	81.8125
7.227677	58	1.166992	61.45996
7.235702	44	1.133789	45.61426
7.243727	37	1.09082	33.48242
7.251752	25	1.047852	24.3584
7.259778	23	1.005859	17.61914
7.267803	17	0.9589844	12.7334
7.275828	12	0.9052734	9.271484
7.283854	19	0.8496094	6.897461
7.291879	12	0.7949219	5.349609
7.299904	7	0.7822266	4.469727
7.307929	7	0.7695313	4.071289
7.315954	8	0.8603516	4.155273
7.323979	12	0.9453125	4.541992
7.332005	8	1.033203	5.194336
7.34003	10	1.108398	6.066406
7.348055	10	1.176758	7.146484
7.35608	9	1.225586	8.404297
7.364105	18	1.264648	9.836914
7.372131	17	1.303711	11.4375
7.380156	16	1.382813	13.22168
7.388181	14	1.459961	15.12012
7.396206	16	1.515625	17.0752
7.404232	22	1.558594	19.05176
7.412257	21	1.59668	21.00977
7.420282	32	1.616211	22.87793
7.428307	24	1.625977	24.60645
7.436332	35	1.623047	26.13477
7.444357	35	1.613281	27.41504
7.452383	20	1.603516	28.40723
7.460408	16	1.575195	29.05273
7.468433	31	1.537109	29.33691
7.476458	33	1.499023	29.25488
7.484484	28	1.466797	28.81445
7.492509	23	1.425781	28.01758
7.500534	29	1.381836	26.89844
7.508559	22	1.335938	25.49902
7.516584	28	1.291016	23.87207
7.52461	18	1.269531	22.09473
7.532635	21	1.248047	20.20117
7.54066	17	1.333984	18.35742
7.548685	21	1.414063	16.50195
7.55671	11	1.491211	14.68848
7.564735	19	1.555664	12.94727
7.572761	10	1.613281	11.31738
7.580786	16	1.65332	9.810547
7.588811	7	1.68457	8.451172
7.596837	9	1.71582	7.255859
7.604862	9	1.786133	6.261719
7.612887	10	1.854492	5.422852
7.620912	11	1.901367	4.708008
7.628937	8	1.936523	4.116211
7.636962	9	1.972656	3.642578
7.644988	4	2.001953	3.264648
7.653013	6	2.022461	2.964844
7.661038	2	2.029297	2.723633
7.669063	6	2.029297	2.53418
7.677088	6	2.025391	2.387695
7.685113	5	2.006836	2.263672
7.693139	8	1.981445	2.161133
7.701164	7	1.955078	2.080078
7.709189	4	1.93457	2.020508
7.717215	3	1.90625	1.96582
7.72524	7	1.87793	1.917969
7.733265	6	1.847656	1.876953
7.74129	1	1.818359	1.839844
7.749315	4	1.789063	1.806641
7.75734	10	1.759766	1.776367
7.765366	3	1.839844	1.858398
7.773391	4	1.913086	1.935547
7.781416	2	1.980469	2.009766
7.789441	2	2.035156	2.075195
7.797466	5	2.083984	2.137695
7.805491	2	2.115234	2.19043
7.813517	3	2.137695	2.242188
7.821542	2	2.160156	2.303711
7.829567	6	2.230469	2.427734
7.837593	5	2.297852	2.566406
7.845618	5	2.341797	2.705078
7.853643	9	2.375977	2.860352
7.861668	7	2.40918	3.048828
7.869693	6	2.439453	3.274414
7.877718	7	2.462891	3.540039
7.885744	5	2.474609	3.84668
7.893769	6	2.478516	4.207031
7.901794	8	2.480469	4.629883
7.909819	9	2.469727	5.111328
7.917844	8	2.452148	5.65918
7.925869	8	2.435547	6.28125
7.933895	7	2.421875	6.976563
7.94192	9	2.400391	7.730469
7.949945	9	2.375977	8.535156
7.957971	9	2.350586	9.379883
7.965996	13	2.323242	10.24902
7.974021	12	2.295898	11.12109
7.982046	8	2.268555	11.97559
7.990071	13	2.345703	12.89063
7.998096	10	2.416016	13.73047
8.006122	17	2.477539	14.46973
8.014147	18	2.525391	15.08008
8.022172	21	2.567383	15.5498
8.030197	18	2.592773	15.85547
8.038222	16	2.610352	15.99512
8.046247	10	2.62793	15.97363
8.054273	15	2.693359	15.8418
8.062298	19	2.756836	15.55957
8.070323	12	2.799805	15.12305
8.078348	11	2.832031	14.56348
8.086373	13	2.863281	13.91406
8.094398	13	2.886719	13.19141
8.102424	11	2.90332	12.42871
8.11045	10	2.912109	11.64941
8.118475	19	2.916992	10.88281
8.1265	13	2.920898	10.1582
8.134525	11	2.916016	9.485352
8.14255	8	2.904297	8.883789
8.150576	10	2.893555	8.370117
8.158601	14	2.883789	7.951172
8.166626	11	2.869141	7.623047
8.174651	7	2.848633	7.381836
8.182676	11	2.824219	7.223633
8.190701	8	2.799805	7.139648
8.198727	9	2.774414	7.118164
8.206752	8	2.749023	7.145508
8.214777	8	2.821289	7.303711
8.222802	9	2.889648	7.472656
8.230827	8	2.944336	7.631836
8.238853	11	2.986328	7.765625
8.246878	5	3.021484	7.868164
8.254903	7	3.042969	7.922852
8.262928	2	3.058594	7.928711
8.270953	11	3.074219	7.888672
8.278978	7	3.12793	7.837891
8.287004	4	3.181641	7.739258
8.295029	3	3.217773	7.579102
8.303054	6	3.246094	7.37207
8.311079	5	3.271484	7.12793
8.319104	5	3.287109	6.851563
8.327129	7	3.298828	6.553711
8.335155	9	3.304688	6.244141
8.343181	6	3.307617	5.933594
8.351206	9	3.310547	5.632813
8.359231	2	3.310547	5.345703
8.367256	3	3.306641	5.080078
8.375281	5	3.302734	4.842773
8.383307	5	3.294922	4.638672
8.391332	6	3.287109	4.473633
8.399357	2	3.270508	4.345703
8.407382	6	3.25	4.263672
8.415407	4	3.227539	4.236328
8.423432	9	3.204102	4.270508
8.431458	5	3.180664	4.375
8.439483	4	3.246094	4.646484
8.447508	6	3.306641	5.001953
8.455533	5	3.351563	5.442383
8.463558	9	3.386719	5.983398
8.471583	6	3.416992	6.643555
8.479609	6	3.435547	7.426758
8.487634	8	3.448242	8.350586
8.495659	9	3.461914	9.425781
8.503684	8	3.499023	10.68359
8.511709	9	3.537109	12.09766
8.519734	8	3.563477	13.65039
8.52776	12	3.583008	15.33496
8.535785	17	3.597656	17.13379
8.54381	28	3.610352	19.02246
8.551835	23	3.62207	20.96875
8.55986	22	3.626953	22.9248
8.567886	21	3.625977	24.84766
8.575912	32	3.624023	26.69043
8.583937	29	3.620117	28.40332
8.591962	33	3.616211	29.93555
8.599987	34	3.62207	31.24805
8.608012	46	3.626953	32.29102
8.616037	35	3.628906	33.02441
8.624063	30	3.621094	33.41797
8.632088	37	3.608398	33.46289
8.640113	38	3.59082	33.1582
8.648138	37	3.572266	32.51563
8.656163	39	3.552734	31.55859
8.664188	31	3.606445	30.3916
8.672214	28	3.655273	28.97852
8.680239	24	3.689453	27.35547
8.688264	24	3.716797	25.58105
8.696289	18	3.741211	23.71191
8.704314	30	3.756836	21.79395
8.712339	15	3.769531	19.87891
8.720365	18	3.782227	18.01367
8.72839	21	3.800781	16.24316
8.736415	11	3.819336	14.58984
8.74444	15	3.834961	13.07422
8.752465	13	3.848633	11.71289
8.76049	13	3.857422	10.50977
8.768516	9	3.863281	9.469727
8.776541	6	3.870117	8.591797
8.784566	4	3.875	7.868164
8.792591	5	3.875977	7.28418
8.800617	5	3.87207	6.825195
8.808642	10	3.866211	6.479492
8.816668	5	3.860352	6.232422
8.824693	6	3.875977	6.089844
8.832718	8	3.891602	6.014648
8.840743	6	3.899414	5.983398
8.848768	4	3.899414	5.983398
8.856793	3	3.895508	6.005859
8.864819	7	3.884766	6.037109
8.872844	9	3.87207	6.069336
8.880869	5	3.859375	6.098633
8.888894	5	3.894531	6.165039
8.896919	4	3.926758	6.212891
8.904944	7	3.950195	6.234375
8.91297	10	3.970703	6.230469
8.920995	8	3.985352	6.198242
8.92902	7	3.996094	6.140625
8.937045	7	4.004883	6.061523
8.94507	3	4.010742	5.960938
8.953095	6	4.014648	5.842773
8.961121	6	4.012695	5.708008
8.969146	11	4.007813	5.5625
8.977171	1	4.003906	5.413086
8.985196	5	4.023438	5.287109
8.993221	5	4.040039	5.162109
9.001246	5	4.052734	5.037109
9.009272	5	4.058594	4.913086
9.017297	6	4.05957	4.795898
9.025323	3	4.057617	4.685547
9.033348	7	4.054688	4.585938
9.041373	4	4.050781	4.499023
9.049398	3	4.068359	4.444336
9.057424	3	4.084961	4.401367
9.065449	3	4.092773	4.359375
9.073474	6	4.095703	4.324219
9.081499	8	4.098633	4.296875
9.089524	5	4.101563	4.277344
9.097549	4	4.099609	4.259766
9.105575	3	4.097656	4.24707
9.1136	2	4.110352	4.253906
9.121625	10	4.123047	4.263672
9.12965	3	4.134766	4.276367
9.137675	5	4.147461	4.289063
9.1457	6	4.15332	4.297852
9.153726	7	4.15625	4.303711
9.161751	9	4.15918	4.308594
9.169776	10	4.162109	4.314453
9.177801	5	4.165039	4.317383
9.185826	13	4.161133	4.3125
9.193851	10	4.15332	4.302734
9.201877	6	4.146484	4.291992
9.209902	10	4.162109	4.303711
9.217927	17	4.176758	4.3125
9.225952	6	4.188477	4.316406
9.233977	8	4.194336	4.314453
9.242002	14	4.198242	4.30957
9.250029	15	4.199219	4.301758
9.258054	9	4.199219	4.291992
9.266079	11	4.198242	4.282227
9.274104	10	4.197266	4.273438
9.282129	12	4.196289	4.264648
9.290154	6	4.192383	4.253906
9.29818	8	4.185547	4.242188
9.306205	9	4.178711	4.232422
9.31423	6	4.194336	4.24707
9.322255	15	4.208984	4.264648
9.33028	9	4.216797	4.27832
9.338305	8	4.22168	4.292969
9.346331	7	4.22168	4.308594
9.354356	3	4.220703	4.329102
9.362381	4	4.21875	4.357422
9.370406	2	4.230469	4.40918
9.378431	2	4.241211	4.470703
9.386456	7	4.248047	4.541992
9.394482	6	4.250977	4.624023
9.402507	3	4.251953	4.720703
9.410532	7	4.249023	4.834961
9.418557	12	4.246094	4.96875
9.426582	9	4.242188	5.125977
9.434608	5	4.248047	5.316406
9.442633	6	4.25293	5.53125
9.450658	4	4.251953	5.764648
9.458683	9	4.249023	6.019531
9.466708	8	4.245117	6.294922
9.474733	3	4.24707	6.594727
9.482759	12	4.248047	6.90918
9.490785	4	4.244141	7.226563
9.49881	6	4.238281	7.544922
9.506835	4	4.230469	7.856445
9.51486	15	4.222656	8.15625
9.522885	9	4.214844	8.435547
9.53091	8	4.212891	8.693359
9.538936	13	4.227539	8.931641
9.546961	14	4.240234	9.126953
9.554986	15	4.24707	9.268555
9.563011	11	4.25	9.355469
9.571036	11	4.250977	9.385742
9.579062	8	4.251953	9.360352
9.587087	14	4.251953	9.28125
9.595112	8	4.259766	9.158203
9.603137	5	4.265625	8.987305
9.611162	8	4.268555	8.771484
9.619187	4	4.269531	8.519531
9.627213	9	4.269531	8.240234
9.635238	4	4.268555	7.94043
9.643263	1	4.266602	7.62793
9.651288	5	4.263672	7.310547
9.659313	8	4.260742	6.996094
9.667338	3	4.256836	6.688477
9.675364	5	4.25	6.393555
9.683389	6	4.243164	6.115234
9.691414	3	4.235352	5.857422
9.699439	6	4.238281	5.630859
9.707465	12	4.239258	5.427734
9.71549	3	4.235352	5.241211
9.723516	11	4.228516	5.075195
9.731541	5	4.220703	4.928711
9.739566	9	4.210938	4.800781
9.747591	10	4.202148	4.691406
9.755616	3	4.201172	4.605469
9.763641	9	4.211914	4.545898
9.771667	4	4.22168	4.496094
9.779692	7	4.227539	4.454102
9.787717	3	4.232422	4.418945
9.795742	6	4.234375	4.388672
9.803767	7	4.235352	4.364258
9.811792	2	4.236328	4.344727
9.819818	6	4.235352	4.329102
9.827843	6	4.233398	4.316406
9.835868	4	4.229492	4.306641
9.843893	5	4.224609	4.300781
9.851918	6	4.219727	4.298828
9.859943	5	4.219727	4.307617
9.867969	5	4.220703	4.322266
9.875994	7	4.217773	4.34082
9.884019	7	4.213867	4.365234
9.892044	3	4.208008	4.397461
9.900069	10	4.200195	4.4375
9.908094	4	4.191406	4.488281
9.91612	6	4.182617	4.552734
9.924145	5	4.18457	4.641602
9.93217	4	4.185547	4.746094
9.940196	6	4.181641	4.863281
9.948221	5	4.176758	4.99707
9.956246	7	4.169922	5.147461
9.964272	6	4.162109	5.316406
9.972297	7	4.154297	5.501953
9.980322	3	4.146484	5.705078
9.988347	4	4.15332	5.936523
9.996372	6	4.15918	6.177734
10.0044	7	4.162109	6.424805
10.01242	5	4.163086	6.672852
10.02045	5	4.162109	6.916992
10.02847	6	4.160156	7.15332
10.0365	6	4.158203	7.375977
10.04452	9	4.154297	7.579102
10.05255	7	4.150391	7.757813
10.06057	6	4.143555	7.90332
10.0686	4	4.134766	8.013672
10.07662	7	4.126953	8.085938
10.08465	10	4.128906	8.129883
10.09267	8	4.128906	8.129883
10.1007	6	4.12793	8.086914
10.10872	8	4.123047	8.000977
10.11675	1	4.116211	7.875977
10.12477	11	4.108398	7.71582
10.1328	3	4.099609	7.524414
10.14083	10	4.09082	7.30957
10.14885	3	4.09082	7.085938
10.15688	5	4.09082	6.848633
10.1649	8	4.088867	6.603516
10.17293	5	4.083984	6.353516
10.18095	7	4.079102	6.107422
10.18898	7	4.071289	5.868164
10.197	7	4.0625	5.639648
10.20503	3	4.054688	5.426758
10.21305	6	4.053711	5.240234
10.22108	4	4.052734	5.073242
10.2291	2	4.052734	4.926758
10.23713	4	4.051758	4.801758
10.24515	7	4.049805	4.696289
10.25318	3	4.045898	4.609375
10.2612	4	4.041016	4.541016
10.26923	5	4.035156	4.491211
10.27725	9	4.029297	4.458984
10.28528	8	4.020508	4.439453
10.2933	9	4.008789	4.432617
10.30133	3	3.99707	4.44043
10.30935	4	4	4.474609
10.31738	6	4	4.518555
10.32541	3	4	4.572266
10.33343	10	3.995117	4.632813
10.34146	9	3.988281	4.701172
10.34948	2	3.981445	4.776367
10.35751	3	3.973633	4.860352
10.36553	8	3.96582	4.952148
10.37356	5	3.958984	5.052734
10.38158	9	3.953125	5.160156
10.38961	2	3.946289	5.274414
10.39763	4	3.94043	5.396484
10.40566	2	3.938477	5.529297
10.41368	6	3.9375	5.667969
10.42171	8	3.932617	5.80957
10.42973	8	3.926758	5.955078
10.43776	4	3.918945	6.103516
10.44578	4	3.910156	6.253906
10.45381	5	3.900391	6.404297
10.46183	5	3.890625	6.554688
10.46986	6	3.893555	6.714844
10.47788	8	3.895508	6.869141
10.48591	6	3.891602	7.009766
10.49393	5	3.885742	7.135742
10.50196	5	3.87793	7.24707
10.50998	4	3.867188	7.336914
10.51801	6	3.853516	7.40332
10.52604	7	3.84082	7.447266
10.53406	8	3.841797	7.480469
10.54209	6	3.841797	7.485352
10.55011	7	3.839844	7.460938
10.55814	6	3.836914	7.407227
10.56616	6	3.831055	7.325195
10.57419	4	3.822266	7.21582
10.58221	5	3.8125	7.083008
10.59024	4	3.802734	6.931641
10.59826	4	3.792969	6.763672
10.60629	9	3.779297	6.583008
10.61431	6	3.763672	6.392578
10.62234	3	3.748047	6.200195
10.63036	3	3.756836	6.032227
10.63839	6	3.763672	5.869141
10.64641	1	3.761719	5.705078
10.65444	6	3.754883	5.547852
10.66246	7	3.748047	5.404297
10.67049	8	3.736328	5.270508
10.67851	7	3.72168	5.149414
10.68654	1	3.708008	5.044922
10.69456	5	3.71582	4.977539
10.70259	2	3.720703	4.923828
10.71062	4	3.719727	4.87793
10.71864	6	3.714844	4.84082
10.72667	2	3.707031	4.813477
10.73469	4	3.695313	4.792969
10.74272	7	3.681641	4.78125
10.75074	4	3.666992	4.779297
10.75877	4	3.666016	4.796875
10.76679	5	3.664063	4.823242
10.77482	6	3.662109	4.855469
10.78284	7	3.660156	4.894531
10.79087	6	3.652344	4.933594
10.79889	5	3.640625	4.975586
10.80692	5	3.628906	5.020508
10.81494	7	3.616211	5.069336
10.82297	6	3.602539	5.120117
10.83099	6	3.585938	5.168945
10.83902	4	3.563477	5.212891
10.84704	7	3.541992	5.253906
10.85507	9	3.556641	5.329102
10.86309	9	3.568359	5.395508
10.87112	2	3.570313	5.443359
10.87914	7	3.566406	5.476563
10.88717	5	3.558594	5.496094
10.8952	6	3.545898	5.498047
10.90322	5	3.530273	5.483398
10.91125	8	3.514648	5.455078
10.91927	5	3.524414	5.4375
10.9273	9	3.53125	5.404297
10.93532	8	3.533203	5.352539
10.94335	2	3.529297	5.283203
10.95137	8	3.522461	5.201172
10.9594	8	3.511719	5.107422
10.96742	1	3.5	5.005859
10.97545	4	3.488281	4.899414
10.98347	4	3.479492	4.791992
10.9915	6	3.470703	4.685547
10.99952	4	3.461914	4.579102
11.00755	10	3.453125	4.474609
11.01557	2	3.451172	4.382813
11.0236	7	3.445313	4.290039
11.03162	2	3.43457	4.198242
11.03965	4	3.420898	4.109375
11.04767	6	3.40625	4.026367
11.0557	2	3.385742	3.942383
11.06372	2	3.358398	3.858398
11.07175	3	3.331055	3.780273
11.07977	1	3.353516	3.756836
11.0878	3	3.369141	3.731445
11.09583	2	3.375977	3.702148
11.10385	6	3.374023	3.666992
11.11188	5	3.366211	3.630859
11.1199	7	3.353516	3.592773
11.12793	1	3.337891	3.555664
11.13595	3	3.322266	3.521484
11.14398	5	3.333008	3.515625
11.152	4	3.341797	3.511719
11.16003	4	3.344727	3.504883
11.16805	4	3.34375	3.49707
11.17608	6	3.339844	3.489258
11.1841	7	3.332031	3.480469
11.19213	8	3.323242	3.472656
11.20015	3	3.310547	3.464844
11.20818	2	3.295898	3.458008
11.2162	6	3.280273	3.452148
11.22423	7	3.264648	3.448242
11.23225	4	3.249023	3.446289
11.24028	4	3.253906	3.466797
11.2483	0	3.255859	3.485352
11.25633	2	3.248047	3.496094
11.26435	2	3.235352	3.500977
11.27238	2	3.220703	3.50293
11.2804	2	3.193359	3.493164
11.28843	6	3.160156	3.476563
11.29645	2	3.126953	3.457031
11.30448	6	3.168945	3.510742
11.31251	1	3.204102	3.556641
11.32053	4	3.232422	3.592773
11.32856	2	3.249023	3.613281
11.33658	7	3.259766	3.625977
11.34461	5	3.265625	3.630859
11.35263	8	3.268555	3.629883
11.36066	4	3.271484	3.625977
11.36868	4	3.290039	3.636719
11.37671	4	3.307617	3.643555
11.38473	5	3.321289	3.646484
11.39276	3	3.333008	3.646484
11.40078	4	3.34375	3.645508
11.40881	9	3.351563	3.640625
11.41683	5	3.356445	3.635742
11.42486	1	3.359375	3.629883
11.43288	0	3.361328	3.624023
11.44091	3	3.361328	3.619141
11.44893	2	3.361328	3.615234
11.45696	2	3.374023	3.626953
11.46498	3	3.381836	3.635742
11.47301	6	3.387695	3.645508
11.48103	4	3.393555	3.655273
11.48906	7	3.397461	3.666992
11.49708	4	3.402344	3.679688
11.50511	1	3.407227	3.692383
11.51313	3	3.407227	3.701172
11.52116	7	3.407227	3.709961
11.52919	4	3.416016	3.727539
11.53721	4	3.421875	3.739258
11.54524	7	3.418945	3.742188
11.55326	5	3.411133	3.737305
11.56129	4	3.404297	3.731445
11.56931	0	3.427734	3.753906
11.57734	3	3.446289	3.768555
11.58536	6	3.458984	3.775391
11.59339	1	3.467773	3.775391
11.60141	6	3.475586	3.771484
11.60944	4	3.477539	3.760742
11.61746	6	3.476563	3.745117
11.62549	6	3.476563	3.728516
11.63351	6	3.489258	3.724609
11.64154	2	3.50293	3.719727
11.64956	3	3.510742	3.708984
11.65759	6	3.515625	3.695313
11.66561	5	3.515625	3.677734
11.67364	3	3.513672	3.658203
11.68166	6	3.511719	3.639648
11.68969	1	3.508789	3.620117
11.69771	2	3.50293	3.599609
11.70574	5	3.493164	3.577148
11.71377	5	3.483398	3.554688
11.72179	5	3.472656	3.533203
11.72982	5	3.474609	3.525391
11.73784	7	3.469727	3.511719
11.74587	6	3.458984	3.494141
11.75389	5	3.446289	3.474609
11.76192	4	3.432617	3.455078
11.76994	4	3.408203	3.426758
11.77797	9	3.378906	3.393555
11.78599	7	3.349609	3.361328
11.79402	4	3.383789	3.393555
11.80204	5	3.412109	3.419922
11.81007	2	3.426758	3.432617
11.81809	7	3.43457	3.439453
11.82612	6	3.443359	3.446289
11.83414	9	3.455078	3.457031
11.84217	7	3.460938	3.462891
11.85019	2	3.467773	3.469727
11.85822	9	3.481445	3.482422
11.86624	3	3.494141	3.495117
11.87427	8	3.50293	3.503906
11.88229	4	3.508789	3.509766
11.89032	2	3.510742	3.511719
11.89834	10	3.510742	3.511719
11.90637	5	3.510742	3.512695
11.9144	6	3.509766	3.511719
11.92242	10	3.506836	3.508789
11.93045	0	3.498047	3.500977
11.93847	7	3.486328	3.490234
11.9465	2	3.474609	3.479492
11.95452	5	3.464844	3.470703
11.96255	1	3.448242	3.455078
11.97057	3	3.428711	3.4375
11.9786	7	3.408203	3.418945
11.98662	8	3.386719	3.400391
11.99465	9	3.360352	3.375977
12.00267	0	3.328125	3.34668
12.0107	5	3.295898	3.317383
12.01872	1	3.320313	3.34668
12.02675	0	3.345703	3.375977
12.03477	6	3.407227	3.443359
12.0428	0	3.466797	3.507813
12.05082	7	3.526367	3.574219
12.05885	3	3.585938	3.641602
12.06687	4	3.644531	3.708984
12.0749	3	3.700195	3.774414
12.08292	5	3.753906	3.838867
12.09095	4	3.806641	3.905273
12.09898	2	3.858398	3.970703
12.107	7	3.908203	4.037109
12.11503	3	3.957031	4.104492
12.12305	10	4.005859	4.172852
12.13108	7	4.053711	4.245117
12.1391	7	4.101563	4.318359
12.14713	5	4.145508	4.391602
12.15515	7	4.18457	4.462891
12.16318	7	4.222656	4.536133
12.1712	7	4.260742	4.612305
12.17923	6	4.297852	4.69043
12.18725	3	4.329102	4.764648
12.19528	2	4.360352	4.841797
12.2033	5	4.397461	4.926758
12.21133	9	4.433594	5.011719
12.21935	12	4.458008	5.085938
12.22738	10	4.475586	5.15332
12.2354	5	4.494141	5.219727
12.24343	5	4.575195	5.34668
12.25145	7	4.651367	5.466797
12.25948	7	4.714844	5.570313
12.2675	6	4.771484	5.663086
12.27553	7	4.828125	5.75
12.28356	3	4.891602	5.838867
12.29158	7	4.950195	5.916016
12.29961	3	5.008789	5.987305
12.30763	7	5.072266	6.055664
12.31566	10	5.135742	6.119141
12.32368	4	5.192383	6.168945
12.33171	6	5.24707	6.210938
12.33973	8	5.299805	6.24707
12.34776	5	5.352539	6.27832
12.35578	9	5.405273	6.306641
12.36381	10	5.457031	6.333984
12.37183	6	5.506836	6.357422
12.37986	5	5.547852	6.375
12.38788	6	5.584961	6.390625
12.39591	5	5.62207	6.410156
12.40393	6	5.662109	6.44043
12.41196	5	5.693359	6.46875
12.41998	10	5.724609	6.506836
12.42801	11	5.765625	6.566406
12.43603	11	5.802734	6.634766
12.44406	9	5.823242	6.699219
12.45208	11	5.833984	6.770508
12.46011	13	5.844727	6.859375
12.46813	15	5.947266	7.057617
12.47616	6	6.044922	7.268555
12.48419	6	6.116211	7.473633
12.49221	8	6.175781	7.685547
12.50024	15	6.235352	7.918945
12.50826	12	6.305664	8.182617
12.51629	8	6.365234	8.457031
12.52431	15	6.424805	8.75293
12.53234	7	6.501953	9.088867
12.54036	16	6.579102	9.447266
12.54839	19	6.643555	9.818359
12.55641	13	6.702148	10.21094
12.56444	21	6.760742	10.63477
12.57246	18	6.819336	11.09277
12.58049	12	6.878906	11.58984
12.58851	15	6.936523	12.13184
12.59654	20	6.989258	12.72168
12.60456	16	7.03418	13.36328
12.61259	17	7.073242	14.06738
12.62061	16	7.113281	14.84961
12.62864	17	7.155273	15.71875
12.63666	13	7.185547	16.66895
12.64469	27	7.21582	17.71777
12.65271	35	7.262695	18.88574
12.66074	26	7.303711	20.15332
12.66876	23	7.319336	21.49902
12.67679	36	7.323242	22.92969
12.68482	34	7.327148	24.44824
12.69284	41	7.450195	26.16309
12.70087	37	7.56543	27.92578
12.70889	35	7.647461	29.68945
12.71692	32	7.712891	31.44531
12.72494	35	7.77832	33.17871
12.73297	59	7.850586	34.86621
12.74099	50	7.910156	36.45215
12.74902	47	7.969727	37.91699
12.75704	44	8.056641	39.25391
12.76507	38	8.144531	40.40332
12.77309	41	8.21582	41.32324
12.78112	49	8.280273	41.99707
12.78914	38	8.341797	42.41113
12.79717	52	8.400391	42.55664
12.80519	47	8.459961	42.42871
12.81322	39	8.513672	42.02539
12.82124	40	8.563477	41.35547
12.82927	38	8.604492	40.43262
12.83729	30	8.642578	39.28223
12.84532	41	8.679688	37.93359
12.85334	37	8.739258	36.44141
12.86137	28	8.783203	34.79883
12.86939	26	8.828125	33.05859
12.87742	22	8.87207	31.25391
12.88544	30	8.912109	29.41699
12.89347	16	8.925781	27.55664
12.90149	26	8.926758	25.71387
12.90952	19	8.926758	23.93066
12.91755	22	9.0625	22.36328
12.92557	25	9.186523	20.88184
12.9336	20	9.280273	19.48145
12.94162	19	9.359375	18.18652
12.94965	14	9.4375	17.01563
12.95767	13	9.5	15.95508
12.9657	19	9.553711	15.0127
12.97372	18	9.609375	14.19043
12.98175	11	9.698242	13.5166
12.98977	13	9.786133	12.94922
12.9978	12	9.858398	12.46289
13.00582	9	9.922852	12.05566
13.01385	9	9.985352	11.72656
13.02187	15	10.04785	11.46582
13.0299	13	10.11035	11.2666
13.03792	16	10.16699	11.11523
13.04595	11	10.21777	11.00293
13.05397	14	10.26172	10.92578
13.062	11	10.30371	10.88086
13.07002	11	10.3457	10.86816
13.07805	12	10.4043	10.90332
13.08607	8	10.45508	10.95801
13.0941	10	10.50488	11.04102
13.10213	7	10.55469	11.15234
13.11015	14	10.59766	11.28906
13.11818	9	10.61816	11.4375
13.1262	13	10.62793	11.61426
13.13423	18	10.63867	11.83301
13.14225	12	10.76855	12.22168
13.15028	12	10.8916	12.65723
13.1583	12	10.99414	13.13379
13.16633	13	11.08203	13.66309
13.17435	19	11.16211	14.26074
13.18238	13	11.23047	14.92773
13.1904	20	11.29297	15.67871
13.19843	17	11.35547	16.52441
13.20645	26	11.44141	17.49316
13.21448	15	11.52637	18.56348
13.2225	22	11.59766	19.72656
13.23053	23	11.66113	20.99023
13.23855	26	11.72559	22.35742
13.24658	25	11.79297	23.83008
13.2546	26	11.86035	25.39551
13.26263	27	11.91895	27.03711
13.27065	20	11.97266	28.74805
13.27868	26	12.02441	30.51465
13.28671	31	12.07422	32.32031
13.29473	29	12.125	34.14844
13.30276	41	12.17871	35.97754
13.31078	41	12.23047	37.78223
13.31881	41	12.28223	39.53711
13.32683	55	12.32617	41.21094
13.33486	33	12.36426	42.77832
13.34288	37	12.39844	44.21875
13.35091	58	12.43164	45.50977
13.35893	52	12.46484	46.63184
13.36696	48	12.57813	47.64551
13.37498	42	12.6875	48.4502
13.38301	55	12.79199	49.03223
13.39103	45	12.88477	49.37793
13.39906	46	12.97363	49.48828
13.40708	60	13.05566	49.36133
13.41511	59	13.13477	49.00488
13.42313	34	13.21289	48.42969
13.43116	62	13.28906	47.64453
13.43918	51	13.3623	46.66602
13.44721	45	13.43066	45.50879
13.45523	43	13.49512	44.19727
13.46326	49	13.56055	42.75879
13.47128	48	13.62793	41.21875
13.47931	41	13.69336	39.59766
13.48734	39	13.75195	37.91602
13.49536	32	13.80664	36.20313
13.50339	26	13.8623	34.48438
13.51141	25	13.91113	32.77637
13.51944	34	13.95703	31.10156
13.52746	25	14.00293	29.48242
13.53549	29	14.04883	27.93164
13.54351	31	14.09277	26.46094
13.55154	17	14.12891	25.07422
13.55956	24	14.16113	23.78223
13.56759	27	14.19434	22.59375
13.57561	19	14.29883	21.58203
13.58364	20	14.40039	20.67285
13.59166	16	14.49707	19.8623
13.59969	22	14.5918	19.14844
13.60771	14	14.68652	18.5293
13.61574	22	14.77832	17.99707
13.62376	19	14.86621	17.54492
13.63179	24	14.95215	17.16406
13.63981	13	15.03613	16.85156
13.64784	15	15.11816	16.59766
13.65586	16	15.19727	16.39551
13.66389	17	15.27539	16.23926
13.67192	19	15.34863	16.12109
13.67994	13	15.4209	16.03711
13.68797	16	15.49219	15.9834
13.69599	22	15.55859	15.95117
13.70402	19	15.62207	15.94141
13.71204	20	15.68164	15.94727
13.72007	20	15.74023	15.96875
13.72809	17	15.79785	16.00879
13.73612	12	15.84863	16.05664
13.74414	14	15.89355	16.11816
13.75217	13	15.93555	16.19629
13.76019	19	15.97266	16.29102
13.76822	18	16.00586	16.41211
13.77624	18	16.0293	16.55762
13.78427	18	16.04688	16.74219
13.79229	24	16.06445	16.9834
13.80032	18	16.2041	17.41895
13.80834	17	16.33594	17.9375
13.81637	22	16.46387	18.56641
13.82439	17	16.58301	19.33008
13.83242	18	16.69824	20.26855
13.84044	24	16.81152	21.42383
13.84847	20	16.9209	22.8418
13.85649	21	17.02539	24.58008
13.86452	22	17.12793	26.7041
13.87255	33	17.22754	29.28516
13.88057	30	17.3252	32.40527
13.8886	39	17.4209	36.1543
13.89662	55	17.51172	40.625
13.90465	59	17.60059	45.92383
13.91267	56	17.68652	52.15625
13.9207	67	17.77148	59.43555
13.92872	72	17.85547	67.87109
13.93675	78	17.93652	77.56543
13.94477	82	18.01563	88.62109
13.9528	96	18.09277	101.124
13.96082	137	18.16992	115.1465
13.96885	127	18.24512	130.7422
13.97687	160	18.31543	147.9287
13.9849	149	18.38281	166.7061
13.99292	187	18.4502	187.0361
14.00095	196	18.51758	208.8408
14.00897	235	18.58496	232.002
14.017	253	18.65625	256.3584
14.02502	303	18.76953	281.7422
14.03305	283	18.88281	307.8623
14.04107	314	18.98633	334.415
14.0491	335	19.08398	361.0781
14.05713	387	19.17285	387.4873
14.06515	371	19.25781	413.2627
14.07318	425	19.34277	438.0078
14.0812	439	19.44922	461.3359
14.08923	461	19.54883	482.8203
14.09725	507	19.64941	502.0781
14.10528	517	19.74707	518.7471
14.1133	546	19.84375	532.5078
14.12133	533	19.93457	543.082
14.12935	546	20.02344	550.2568
14.13738	593	20.11133	553.8828
14.1454	563	20.2002	553.8779
14.15343	507	20.28613	550.2314
14.16145	564	20.37305	543.0098
14.16948	538	20.46094	532.3525
14.1775	520	20.54785	518.4609
14.18553	541	20.62988	501.5986
14.19355	499	20.70996	482.0879
14.20158	485	20.78906	460.292
14.2096	481	20.86816	436.6064
14.21763	407	20.94629	411.4473
14.22565	364	21.02441	385.2373
14.23368	343	21.10352	358.3965
14.2417	342	21.18848	331.3369
14.24973	303	21.27148	304.4287
14.25775	281	21.34961	278.0176
14.26578	282	21.42285	252.4121
14.27381	219	21.49219	227.876
14.28183	220	21.55078	204.6182
14.28986	191	21.60254	182.8135
14.29788	168	21.65527	162.5859
14.30591	146	21.76563	144.0713
14.31393	117	21.86719	127.2324
14.32196	127	21.94922	112.0557
14.32998	91	22.02148	98.5127
14.33801	87	22.09277	86.54688
14.34603	75	22.14063	76.05176
14.35406	70	22.17676	66.93555
14.36208	50	22.21289	59.09766
14.37011	54	22.35156	52.52148
14.37813	36	22.4834	46.97656
14.38616	51	22.58496	42.32031
14.39418	47	22.66992	38.4541
14.40221	43	22.75293	35.2832
14.41023	27	22.81836	32.69043
14.41826	23	22.87598	30.59473
14.42628	26	22.93262	28.92285
14.43431	31	23.04883	27.66309
14.44233	29	23.16504	26.69336
14.45036	28	23.26855	25.94629
14.45838	27	23.36035	25.37793
14.46641	18	23.44434	24.9541
14.47443	31	23.51953	24.6416
14.48246	25	23.59082	24.41992
14.49049	33	23.65723	24.26758
14.49851	22	23.72168	24.16895
14.50654	27	23.78418	24.11328
14.51456	30	23.84668	24.09082
14.52259	34	23.90918	24.09375
14.53061	32	24.02148	24.16797
14.53864	21	24.12695	24.24902
14.54666	25	24.20605	24.31641
14.55469	23	24.27246	24.37988
14.56271	17	24.33887	24.45215
14.57074	30	24.37793	24.50586
14.57876	30	24.39648	24.5459
14.58679	15	24.41504	24.59375
14.59481	21	24.61035	24.82715
14.60284	32	24.79395	25.05957
14.61086	21	24.94043	25.26367
14.61889	20	25.06348	25.45801
14.62691	23	25.17383	25.6543
14.63494	28	25.2627	25.8457
14.64296	35	25.34082	26.04688
14.65099	26	25.41895	26.26953
14.65901	32	25.60059	26.62305
14.66704	35	25.76172	26.98633
14.67507	20	25.9043	27.36523
14.68309	26	26.02734	27.76367
14.69112	31	26.13965	28.19531
14.69914	35	26.24414	28.66602
14.70717	19	26.34375	29.18652
14.71519	28	26.44336	29.76563
14.72322	27	26.57422	30.43945
14.73124	32	26.70605	31.18262
14.73927	32	26.83789	31.99805
14.74729	21	26.96973	32.89063
14.75532	25	27.09668	33.85547
14.76334	47	27.20801	34.88574
14.77137	33	27.30957	35.98633
14.77939	48	27.40527	37.16211
14.78742	50	27.50195	38.41406
14.79544	43	27.58594	39.72461
14.80347	32	27.65039	41.08203
14.81149	43	27.71484	42.49512
14.81952	33	27.9082	44.08203
14.82754	38	28.08594	45.68457
14.83557	54	28.23438	47.27539
14.84359	40	28.36816	48.85156
14.85162	46	28.5	50.4082
14.85964	55	28.61816	51.91309
14.86767	63	28.72949	53.35254
14.8757	63	28.84082	54.71387
14.88372	55	28.99414	56.01758
14.89175	55	29.1416	57.19629
14.89977	55	29.28516	58.2334
14.9078	60	29.4248	59.1123
14.91582	62	29.55664	59.81543
14.92385	59	29.68652	60.33594
14.93187	79	29.8125	60.66602
14.9399	70	29.93848	60.80078
14.94792	54	30.06348	60.74121
14.95595	57	30.18457	60.48438
14.96397	64	30.30176	60.04004
14.972	58	30.41992	59.41992
14.98002	59	30.53223	58.63184
14.98805	57	30.64063	57.69238
14.99607	66	30.74609	56.62207
15.0041	59	30.84961	55.44238
15.01212	55	30.95215	54.1748
15.02015	43	31.0459	52.83496
15.02817	48	31.13477	51.44824
15.0362	52	31.22461	50.04297
15.04422	54	31.38184	48.70605
15.05225	34	31.53418	47.38477
15.06028	47	31.68555	46.09863
15.0683	56	31.83105	44.86035
15.07633	46	31.97363	43.68457
15.08435	39	32.11719	42.58496
15.09238	30	32.25879	41.56543
15.1004	32	32.39355	40.62891
15.10843	48	32.52539	39.7793
15.11645	34	32.65625	39.01855
15.12448	38	32.78516	38.34668
15.1325	29	32.90332	37.75195
15.14053	51	33.01758	37.2334
15.14855	35	33.13086	36.79297
15.15658	37	33.2666	36.44629
15.1646	31	33.40039	36.16113
15.17263	37	33.51367	35.91309
15.18065	31	33.61621	35.70703
15.18868	39	33.71875	35.5459
15.1967	31	33.85156	35.45313
15.20473	41	33.97559	35.38477
15.21275	32	34.08398	35.3291
15.22078	49	34.18457	35.28906
15.2288	31	34.28516	35.26855
15.23683	40	34.39063	35.26855
15.24485	38	34.48047	35.2666
15.25288	37	34.57031	35.27637
15.26091	27	34.71289	35.34766
15.26893	33	34.85547	35.42676
15.27696	40	35.02734	35.54102
15.28498	33	35.18457	35.64746
15.29301	36	35.34277	35.75977
15.30103	29	35.5127	35.89063
15.30906	36	35.67578	36.01953
15.31708	39	35.82813	36.14355
15.32511	41	35.97559	36.27051
15.33313	34	36.12305	36.40527
15.34116	28	36.26953	36.54785
15.34918	39	36.41211	36.69727
15.35721	52	36.5498	36.85645
15.36523	39	36.68457	37.0293
15.37326	49	36.82031	37.22266
15.38128	48	36.96387	37.44922
15.38931	36	37.10547	37.70508
15.39733	33	37.23828	37.98926
15.40536	31	37.36621	38.31543
15.41338	34	37.49414	38.69824
15.42141	40	37.62109	39.14746
15.42943	34	37.73926	39.67188
15.43746	41	37.8584	40.2959
15.44549	37	37.98926	41.0498
15.45351	50	38.12012	41.94238
15.46154	45	38.23828	42.98438
15.46956	44	38.3457	44.20508
15.47759	52	38.4541	45.64258
15.48561	48	38.62598	47.39453
15.49364	49	38.79395	49.42383
15.50166	46	38.94336	51.75195
15.50969	76	39.08496	54.4248
15.51771	47	39.22559	57.4873
15.52574	78	39.37598	60.98633
15.53376	62	39.51855	64.93945
15.54179	74	39.66113	69.39063
15.54981	68	39.8125	74.37793
15.55784	80	39.96191	79.91992
15.56586	88	40.10742	86.03613
15.57389	84	40.25195	92.74609
15.58191	129	40.39453	100.0586
15.58994	109	40.53613	107.9756
15.59796	128	40.67773	116.4893
15.60599	135	40.81738	125.5801
15.61401	114	40.95703	135.2197
15.62204	150	41.09277	145.3672
15.63006	143	41.22852	155.9717
15.63809	136	41.36426	166.9688
15.64612	176	41.50098	178.2852
15.65414	190	41.63477	189.8291
15.66217	201	41.76758	201.5059
15.67019	224	41.89941	213.2061
15.67822	203	42.0293	224.8154
15.68624	247	42.15527	236.207
15.69427	248	42.27832	247.2568
15.70229	266	42.40137	257.8359
15.71032	282	42.54297	267.8301
15.71834	280	42.6748	277.084
15.72637	289	42.80664	285.4814
15.73439	276	42.94043	292.9063
15.74242	333	43.07422	299.2471
15.75044	334	43.19727	304.4004
15.75847	282	43.31543	308.2881
15.76649	318	43.43457	310.8535
15.77452	316	43.58008	312.0771
15.78254	301	43.71875	311.8994
15.79057	323	43.84961	310.3164
15.79859	280	43.97559	307.3486
15.80662	303	44.10156	303.042
15.81464	282	44.23535	297.4639
15.82267	284	44.35645	290.6768
15.83069	298	44.47852	282.791
15.83872	264	44.62598	273.9463
15.84674	276	44.77344	264.2471
15.85477	248	44.90625	253.8164
15.86279	227	45.03027	242.8076
15.87082	240	45.1543	231.3779
15.87885	219	45.30273	219.7021
15.88687	229	45.44531	207.8975
15.8949	184	45.57813	196.1025
15.90292	182	45.70703	184.4531
15.91095	176	45.83496	173.0771
15.91897	157	45.97461	162.0928
15.927	171	46.1084	151.5791
15.93502	134	46.23438	141.6094
15.94305	138	46.35547	132.251
15.95107	129	46.47754	123.5527
15.9591	125	46.61816	115.5635
15.96712	108	46.75391	108.2744
15.97515	119	46.88086	101.6787
15.98317	99	47.00195	95.76953
15.9912	105	47.12402	90.5293
15.99922	87	47.25	85.92871
16.00725	91	47.36816	81.91309
16.01527	87	47.48633	78.44727
16.0233	70	47.6123	75.4873
16.03132	72	47.73926	72.97266
16.03935	74	47.85449	70.83984
16.04737	71	47.96094	69.03809
16.0554	61	48.06738	67.52441
16.06343	60	48.2207	66.30078
16.07145	71	48.37402	65.27344
16.07948	69	48.50391	64.37891
16.0875	51	48.62012	63.59473
16.09553	74	48.73828	62.90332
16.10355	67	48.89258	62.31445
16.11158	59	49.03809	61.76172
16.1196	72	49.16797	61.22266
16.12763	60	49.29004	60.69336
16.13565	72	49.41309	60.17188
16.14368	58	49.55859	59.67773
16.1517	58	49.69336	59.17383
16.15973	52	49.82715	58.6709
16.16775	65	49.96777	58.17871
16.17578	62	50.10547	57.69043
16.1838	56	50.22754	57.19824
16.19183	62	50.34375	56.71484
16.19985	71	50.45898	56.25391
16.20788	50	50.60547	55.84961
16.2159	61	50.74707	55.47168
16.22393	48	50.87207	55.11328
16.23195	50	50.98828	54.78613
16.23998	49	51.10547	54.50195
16.248	53	51.25195	54.29395
16.25603	49	51.39355	54.12988
16.26406	56	51.51953	54.00098
16.27208	55	51.6377	53.91797
16.28011	55	51.75586	53.88965
16.28813	44	51.90234	53.94434
16.29616	50	52.04395	54.05371
16.30418	53	52.16992	54.20605
16.31221	60	52.28809	54.41211
16.32023	54	52.40723	54.68164
16.32826	61	52.55566	55.04688
16.33628	56	52.69629	55.4707
16.34431	45	52.82324	55.95117
16.35233	70	52.94238	56.49512
16.36036	64	53.0625	57.11426
16.36838	57	53.20703	57.83398
16.37641	57	53.33789	58.61816
16.38443	63	53.46973	59.48145
16.39246	68	53.60352	60.42578
16.40048	61	53.7334	61.44629
16.40851	73	53.8457	62.52734
16.41653	54	53.9502	63.6748
16.42456	68	54.05371	64.89453
16.43258	54	54.21973	66.24512
16.44061	60	54.37695	67.64746
16.44864	66	54.51074	69.08203
16.45666	76	54.63477	70.55176
16.46469	64	54.75781	72.05762
16.47271	64	54.9082	73.61523
16.48074	71	55.0459	75.17285
16.48876	95	55.18359	76.72949
16.49679	76	55.32031	78.26953
16.50481	80	55.45508	79.77832
16.51284	85	55.57324	81.22461
16.52086	81	55.68164	82.60059
16.52889	97	55.79102	83.90137
16.53691	92	55.93652	85.14941
16.54494	86	56.08008	86.28809
16.55296	75	56.19531	87.2832
16.56099	99	56.29883	88.13477
16.56901	82	56.40137	88.84668
16.57704	84	56.56348	89.4707
16.58506	112	56.71777	89.93262
16.59309	79	56.8418	90.20703
16.60111	93	56.95215	90.30664
16.60914	79	57.0625	90.24707
16.61716	85	57.22363	90.08203
16.62519	75	57.375	89.75586
16.63321	94	57.50098	89.26172
16.64124	81	57.61426	88.62012
16.64927	78	57.72852	87.85645
16.65729	93	57.88965	87.02832
16.66532	95	58.03906	86.09375
16.67334	101	58.16504	85.05273
16.68137	92	58.27832	83.93164
16.68939	95	58.3916	82.75879
16.69742	103	58.55664	81.60156
16.70544	69	58.70703	80.40723
16.71347	57	58.83203	79.17969
16.72149	92	58.94531	77.94531
16.72952	80	59.05859	76.72754
16.73754	88	59.19824	75.56348
16.74557	70	59.30859	74.40723
16.75359	75	59.41992	73.2959
16.76162	81	59.56348	72.26758
16.76964	74	59.70117	71.29004
16.77767	68	59.79688	70.33008
16.78569	52	59.87109	69.41309
16.79372	76	59.94629	68.55859
16.80174	65	60.15137	67.90039
16.80977	77	60.3457	67.2959
16.81779	65	60.48926	66.7041
16.82582	73	60.6084	66.15039
16.83385	69	60.72754	65.65723
16.84187	57	60.90332	65.27734
16.8499	63	61.06738	64.94141
16.85792	77	61.21973	64.64648
16.86595	71	61.36719	64.39453
16.87397	67	61.51367	64.18848
16.882	71	61.6543	64.01855
16.89002	61	61.78809	63.88086
16.89805	63	61.90625	63.7627
16.90607	69	62.01758	63.6709
16.9141	70	62.12793	63.6084
16.92212	79	62.28906	63.62207
16.93015	60	62.43652	63.64453
16.93817	73	62.5498	63.6543
16.9462	56	62.64746	63.66504
16.95422	75	62.74512	63.69141
16.96225	62	62.90527	63.79297
16.97027	72	63.03223	63.87207
16.9783	72	63.16016	63.95898
16.98632	63	63.29785	64.0625
16.99435	61	63.42676	64.16211
17.00237	63	63.50195	64.21191
17.0104	56	63.55078	64.2373
17.01842	56	63.59961	64.26367
17.02645	60	63.87793	64.52051
17.03448	51	64.12598	64.74609
17.0425	84	64.33105	64.92871
17.05053	65	64.51563	65.08887
17.05855	61	64.69727	65.24512
17.06658	72	64.86914	65.39063
17.0746	70	65.03711	65.53125
17.08263	69	65.19824	65.66406
17.09065	73	65.35645	65.79199
17.09868	77	65.51172	65.91895
17.1067	72	65.66797	66.04395
17.11473	75	65.82324	66.16992
17.12275	66	66.00391	66.32129
17.13078	80	66.17285	66.46191
17.1388	59	66.33301	66.59375
17.14683	65	66.48145	66.71582
17.15485	68	66.625	66.83398
17.16288	61	66.75195	66.9375
17.1709	72	66.87012	67.0332
17.17893	71	66.98828	67.13184
17.18695	65	67.18945	67.31348
17.19498	74	67.37988	67.48828
17.203	59	67.5459	67.63867
17.21103	73	67.69629	67.77539
17.21906	84	67.83789	67.90625
17.22708	66	67.95508	68.0127
17.23511	54	68.05859	68.10938
17.24313	57	68.16309	68.20703
17.25116	84	68.43164	68.46973
17.25918	62	68.68848	68.72363
17.26721	66	68.92188	68.9541
17.27523	80	69.14258	69.17578
17.28326	82	69.35938	69.39453
17.29128	68	69.56152	69.60156
17.29931	77	69.75781	69.80566
17.30733	59	69.95313	70.0127
17.31536	64	70.15625	70.23145
17.32338	71	70.3584	70.45508
17.33141	79	70.56055	70.68457
17.33943	75	70.7627	70.92188
17.34746	81	70.94922	71.1543
17.35548	84	71.12793	71.39063
17.36351	76	71.30664	71.64258
17.37153	88	71.49707	71.92188
17.37956	82	71.68555	72.22168
17.38758	72	71.85254	72.52539
17.39561	88	72.00879	72.84668
17.40364	70	72.16504	73.20215
17.41166	71	72.3877	73.66406
17.41969	74	72.59082	74.15137
17.42771	76	72.7793	74.6748
17.43574	65	72.95801	75.24707
17.44376	82	73.13867	75.88281
17.45179	86	73.28809	76.55859
17.45981	83	73.41699	77.29102
17.46784	92	73.5459	78.10547
17.47586	87	73.8252	79.15625
17.48389	90	74.09375	80.28809
17.49191	79	74.31543	81.46777
17.49994	82	74.51367	82.71875
17.50796	92	74.71289	84.06543
17.51599	87	74.93652	85.53027
17.52401	92	75.15039	87.07324
17.53204	90	75.36426	88.69824
17.54006	89	75.5791	90.39746
17.54809	108	75.79492	92.1582
17.55611	79	75.99707	93.95117
17.56414	102	76.19336	95.76758
17.57216	106	76.38281	97.58887
17.58019	105	76.57031	99.39746
17.58821	85	76.75781	101.1758
17.59624	108	76.95996	102.9131
17.60427	120	77.15527	104.5664
17.61229	99	77.33594	106.1025
17.62032	126	77.50781	107.5068
17.62834	104	77.67969	108.7656
17.63637	120	77.8877	109.8965
17.64439	108	78.07227	110.8242
17.65242	118	78.25684	111.5586
17.66044	118	78.45215	112.0986
17.66847	87	78.64355	112.4268
17.67649	108	78.80078	112.5098
17.68452	113	78.94238	112.3672
17.69254	93	79.08398	112.0215
17.70057	129	79.3457	111.6045
17.70859	105	79.58984	110.9922
17.71662	116	79.79199	110.1758
17.72464	114	79.97363	109.1973
17.73267	101	80.15625	108.0986
17.74069	124	80.40039	106.9658
17.74872	107	80.62891	105.7451
17.75674	110	80.83789	104.457
17.76477	107	81.03613	103.1338
17.77279	102	81.23535	101.8105
17.78082	106	81.42188	100.4932
17.78884	107	81.59375	99.20313
17.79687	100	81.7666	97.96875
17.80489	100	81.9668	96.83496
17.81292	110	82.16406	95.78125
17.82095	98	82.32324	94.78223
17.82897	86	82.46484	93.86426
17.837	93	82.60645	93.0498
17.84502	87	82.86328	92.45313
17.85305	89	83.09961	91.93945
17.86107	79	83.30371	91.49121
17.8691	112	83.49023	91.12109
17.87712	93	83.67773	90.83789
17.88515	97	83.92578	90.69531
17.89317	94	84.16309	90.6123
17.9012	107	84.37012	90.56152
17.90922	92	84.5625	90.54785
17.91725	85	84.75586	90.57715
17.92527	79	84.9707	90.66211
17.9333	80	85.16113	90.74609
17.94132	87	85.35059	90.8457
17.94935	85	85.55273	90.9668
17.95737	107	85.75586	91.09082
17.9654	87	85.92383	91.17676
17.97342	82	86.06445	91.22754
17.98145	81	86.20605	91.26758
17.98947	86	86.49219	91.43652
17.9975	87	86.76953	91.58301
18.00552	100	86.99023	91.6543
18.01355	90	87.18164	91.68066
18.02157	85	87.37402	91.69141
18.0296	96	87.63281	91.75586
18.03762	78	87.88672	91.80176
18.04565	87	88.11523	91.81152
18.05368	90	88.33203	91.80273
18.0617	100	88.54883	91.78809
18.06973	98	88.77051	91.77539
18.07775	82	88.98926	91.75977
18.08578	97	89.18555	91.72559
18.0938	102	89.37109	91.68555
18.10183	83	89.55762	91.65332
18.10985	106	89.78906	91.6748
18.11788	78	90.00977	91.69727
18.1259	83	90.20508	91.70508
18.13393	90	90.3877	91.71289
18.14195	94	90.57129	91.73438
18.14998	103	90.80566	91.82129
18.158	82	91.01172	91.8916
18.16603	85	91.2168	91.97559
18.17405	97	91.48047	92.12988
18.18208	106	91.73926	92.29297
18.1901	94	91.96973	92.4375
18.19813	80	92.18457	92.57813
18.20615	101	92.39941	92.72949
18.21418	100	92.63184	92.90625
18.2222	102	92.8584	93.08594
18.23023	97	93.08105	93.26855
18.23825	96	93.30176	93.45703
18.24628	90	93.52246	93.65039
18.2543	85	93.74023	93.84668
18.26233	91	93.95703	94.04688
18.27036	94	94.16113	94.23926
18.27838	103	94.35938	94.42871
18.28641	104	94.55762	94.62207
18.29443	108	94.76465	94.82813
18.30246	94	94.97168	95.03711
18.31048	95	95.16797	95.23926
18.31851	96	95.35156	95.43262
18.32653	89	95.53516	95.62988
18.33456	114	95.75879	95.87207
18.34258	114	95.97168	96.1084
18.35061	97	96.16113	96.32715
18.35863	110	96.33887	96.54004
18.36666	98	96.51758	96.76074
18.37468	102	96.70801	97.00195
18.38271	91	96.86914	97.22168
18.39073	97	97.03027	97.45117
18.39876	111	97.32715	97.82715
18.40678	104	97.60938	98.2002
18.41481	94	97.86035	98.55371
18.42283	99	98.0957	98.9043
18.43086	113	98.33105	99.26953
18.43888	100	98.55957	99.64258
18.44691	108	98.77832	100.0195
18.45494	109	98.99707	100.4121
18.46296	92	99.23242	100.834
18.47099	94	99.46289	101.2666
18.47901	113	99.69043	101.709
18.48704	98	99.91602	102.1611
18.49506	99	100.1338	102.6152
18.50309	113	100.3467	103.0732
18.51111	94	100.5576	103.5352
18.51914	98	100.7666	103.999
18.52716	100	100.9766	104.4648
18.53519	116	101.1826	104.9229
18.54321	103	101.3789	105.3662
18.55124	85	101.5752	105.7998
18.55926	106	101.7842	106.2334
18.56729	116	101.9795	106.6367
18.57531	104	102.1631	107.0088
18.58334	111	102.3418	107.3525
18.59136	118	102.5205	107.6719
18.59939	115	102.6953	107.958
18.60741	103	102.8428	108.1885
18.61544	93	102.9912	108.3867
18.62346	123	103.2998	108.7139
18.63149	90	103.5879	108.9883
18.63951	108	103.8525	109.207
18.64754	108	104.1064	109.3828
18.65557	119	104.3604	109.5303
18.66359	101	104.5986	109.6338
18.67162	121	104.8252	109.7012
18.67964	117	105.0527	109.7461
18.68767	126	105.291	109.7832
18.69569	107	105.5195	109.7949
18.70372	131	105.748	109.7939
18.71174	114	105.9844	109.793
18.71977	104	106.2148	109.7813
18.72779	109	106.4424	109.7656
18.73582	103	106.6631	109.7451
18.74384	105	106.8799	109.7256
18.75187	106	107.0967	109.7139
18.75989	101	107.2988	109.6992
18.76792	114	107.4951	109.6885
18.77594	109	107.6904	109.6924
18.78397	111	107.8975	109.7227
18.79199	126	108.0918	109.7559
18.80002	101	108.2764	109.7949
18.80804	122	108.4551	109.8457
18.81607	126	108.6338	109.9131
18.82409	122	108.8125	109.9961
18.83212	123	108.9629	110.0645
18.84015	123	109.1123	110.1475
18.84817	105	109.4326	110.4141
18.8562	97	109.7246	110.6631
18.86422	110	110.0059	110.9121
18.87225	109	110.2813	111.1631
18.88027	133	110.5527	111.4189
18.8883	115	110.8018	111.6582
18.89632	119	111.04	111.8906
18.90435	128	111.2783	112.126
18.91237	107	111.5186	112.3652
18.9204	126	111.7441	112.5918
18.92842	120	111.9707	112.8174
18.93645	117	112.2109	113.0576
18.94447	127	112.4375	113.2813
18.9525	127	112.6641	113.5039
18.96052	110	112.9082	113.7393
18.96855	148	113.1377	113.958
18.97657	117	113.3604	114.166
18.9846	125	113.5693	114.3574
18.99262	109	113.7715	114.5391
19.00065	134	113.9736	114.7168
19.00867	113	114.1807	114.8975
19.0167	99	114.377	115.0654
19.02472	107	114.5625	115.2188
19.03275	125	114.7422	115.3643
19.04078	124	114.9219	115.5098
19.0488	112	115.1074	115.6602
19.05683	114	115.2588	115.7754
19.06485	110	115.4111	115.8916
19.07288	116	115.8125	116.2578
19.0809	118	116.2158	116.626
19.08893	129	116.5781	116.9541
19.09695	123	116.9131	117.2568
19.10498	111	117.249	117.5615
19.113	114	117.6123	117.8975
19.12103	107	117.9492	118.207
19.12905	141	118.2861	118.5186
19.13708	108	118.6709	118.8799
19.1451	129	119.043	119.2314
19.15313	146	119.3838	119.5537
19.16115	120	119.7109	119.8633
19.16918	108	120.0381	120.1758
19.1772	141	120.3926	120.5176
19.18523	118	120.7324	120.8457
19.19325	120	121.0547	121.1582
19.20128	135	121.3672	121.4619
19.2093	122	121.6602	121.748
19.21733	129	121.9434	122.0254
19.22536	133	122.2275	122.3037
19.23338	127	122.4941	122.5664
19.24141	126	122.7461	122.8145
19.24943	127	122.9971	123.0635
19.25746	138	123.2842	123.3477
19.26548	132	123.5684	123.6309
19.27351	122	123.7969	123.8574
19.28153	126	123.998	124.0576
19.28956	110	124.1992	124.2578
19.29758	123	124.6699	124.7275
19.30561	139	125.1162	125.1738
19.31363	145	125.4824	125.54
19.32166	132	125.8096	125.8662
19.32968	150	126.1367	126.1934
19.33771	124	126.4609	126.5186
19.34573	124	126.7568	126.8145
19.35376	140	127.0537	127.1104
19.36178	131	127.4453	127.502
19.36981	133	127.8184	127.875
19.37783	126	128.1895	128.2461
19.38586	138	128.5498	128.6064
19.39388	121	128.9053	128.9619
19.40191	136	129.2451	129.3027
19.40993	135	129.5664	129.624
19.41796	160	129.8799	129.9365
19.42599	128	130.1787	130.2363
19.43401	126	130.4717	130.5293
19.44204	130	130.7656	130.8232
19.45006	136	131.0479	131.1055
19.45809	128	131.3203	131.3779
19.46611	133	131.5918	131.6504
19.47414	153	131.8857	131.9434
19.48216	145	132.168	132.2256
19.49019	142	132.4492	132.5078
19.49821	145	132.7441	132.8027
19.50624	119	133.0264	133.085
19.51426	142	133.3096	133.3682
19.52229	108	133.5918	133.6514
19.53031	133	133.8564	133.917
19.53834	135	134.1221	134.1836
19.54636	137	134.4307	134.4951
19.55439	144	134.6836	134.749
19.56241	130	134.9365	135.0039
19.57044	134	135.7344	135.8037
19.57846	152	136.5029	136.5752
19.58649	138	137.2119	137.2861
19.59451	127	137.8877	137.9648
19.60254	144	138.5469	138.6279
19.61057	144	139.1641	139.249
19.61859	127	139.7607	139.8496
19.62662	179	140.3584	140.4521
19.63464	130	141.0635	141.1631
19.64267	132	141.7402	141.8457
19.65069	159	142.3857	142.4971
19.65872	144	143.0156	143.1338
19.66674	145	143.6465	143.7715
19.67477	182	144.2744	144.4082
19.68279	144	144.876	145.0176
19.69082	128	145.4785	145.6289
19.69884	126	146.1152	146.2734
19.70687	162	146.7178	146.8867
19.71489	142	147.3223	147.5
19.72292	168	147.958	148.1465
19.73094	164	148.5957	148.7939
19.73897	155	149.2041	149.4141
19.74699	152	149.7988	150.0195
19.75502	164	150.3564	150.5889
19.76304	168	150.8965	151.1406
19.77107	155	151.4365	151.6934
19.77909	158	152.0801	152.3506
19.78712	156	152.6836	152.9658
19.79515	135	153.2871	153.584
19.80317	175	153.8926	154.2041
19.8112	153	154.4756	154.8027
19.81922	157	154.9941	155.3379
19.82725	151	155.4795	155.8408
19.83527	158	155.9668	156.3457
19.8433	143	156.7568	157.1563
19.85132	162	157.5127	157.9346
19.85935	161	158.252	158.6973
19.86737	166	158.9795	159.4512
19.8754	167	159.6543	160.1543
19.88342	158	160.3027	160.835
19.89145	159	160.9375	161.5039
19.89947	177	161.5664	162.1709
19.9075	163	162.1963	162.8418
19.91552	166	162.7969	163.4873
19.92355	168	163.375	164.1162
19.93157	170	163.9541	164.75
19.9396	186	164.6748	165.5303
19.94762	181	165.3564	166.2764
19.95565	138	166.0195	167.0107
19.96367	174	166.6592	167.7285
19.9717	199	167.2871	168.4414
19.97972	156	167.917	169.1621
19.98775	171	168.5459	169.8916
19.99578	166	169.1494	170.6025
20.0038	172	169.7529	171.3232
20.01183	162	170.3496	172.0469
20.01985	178	170.9385	172.7725
20.02788	181	171.4932	173.4727
20.0359	171	172.0293	174.168
20.04393	174	172.5664	174.876
20.05195	166	173.5527	176.0459
20.05998	196	174.5137	177.2031
20.068	179	175.4609	178.3623
20.07603	199	176.3408	179.4688
20.08405	171	177.1875	180.5576
20.09208	170	178.0186	181.6484
20.1001	163	178.8418	182.75
20.10813	169	179.667	183.8721
20.11615	169	180.6025	185.125
20.12418	195	181.5098	186.3721
20.1322	204	182.3906	187.6143
20.14023	208	183.2422	188.8506
20.14825	192	184.0791	190.0996
20.15628	210	184.9033	191.3613
20.1643	195	185.7217	192.6455
20.17233	204	186.542	193.9609
20.18036	193	187.4189	195.3662
20.18838	210	188.2871	196.7949
20.19641	200	189.1396	198.2432
20.20443	215	189.9805	199.7168
20.21246	199	190.8164	201.2236
20.22048	203	191.6445	202.7646
20.22851	191	192.4688	204.3457
20.23653	207	193.2803	205.959
20.24456	224	194.0859	207.6143
20.25258	192	194.8838	209.3115
20.26061	227	195.6787	211.0605
20.26863	205	196.4668	212.8564
20.27666	220	197.25	214.7061
20.28468	206	198.0234	216.6074
20.29271	219	198.7939	218.5684
20.30073	242	199.5537	220.5859
20.30876	233	200.3086	222.667
20.31678	208	201.0615	224.8193
20.32481	239	201.8125	227.043
20.33283	263	202.5527	229.334
20.34086	241	203.2891	231.7002
20.34888	223	204.0186	234.1396
20.35691	240	204.7432	236.6611
20.36493	255	205.4629	239.2627
20.37296	257	206.1797	241.9492
20.38099	237	206.8936	244.7227
20.38901	242	207.6055	247.5859
20.39704	282	208.3096	250.5332
20.40506	257	209.0117	253.5723
20.41309	246	209.7061	256.6973
20.42111	255	210.3975	259.9131
20.42914	272	211.0781	263.2139
20.43716	240	211.7539	266.6045
20.44519	280	212.4238	270.083
20.45321	288	213.0918	273.6533
20.46124	285	213.749	277.3086
20.46926	309	214.4033	281.0518
20.47729	298	215.0488	284.8789
20.48531	269	215.6885	288.793
20.49334	309	216.3154	292.7842
20.50136	313	216.9355	296.8594
20.50939	276	217.5498	301.0186
20.51741	330	218.1611	305.2637
20.52544	295	218.7656	309.5918
20.53346	312	219.3633	314.002
20.54149	345	219.9561	318.498
20.54951	380	220.5459	323.0781
20.55754	352	221.124	327.7383
20.56557	341	221.6973	332.4834
20.57359	332	222.2627	337.3135
20.58162	369	222.8252	342.2314
20.58964	360	223.3828	347.2383
20.59767	373	223.9375	352.3379
20.60569	397	224.4883	357.5273
20.61372	361	225.0332	362.8086
20.62174	391	225.5684	368.1768
20.62977	366	226.0986	373.6377
20.63779	386	226.6182	379.1865
20.64582	364	227.1338	384.8301
20.65384	398	227.6396	390.5625
20.66187	423	228.1426	396.3887
20.66989	387	228.6377	402.3047
20.67792	424	229.1289	408.3115
20.68594	443	229.6064	414.3984
20.69397	446	230.0762	420.5684
20.70199	437	230.5332	426.8145
20.71002	419	230.9824	433.1367
20.71804	436	231.416	439.5254
20.72607	464	231.8438	445.9834
20.73409	488	232.2617	452.5049
20.74212	460	232.6768	459.0879
20.75014	481	233.084	465.7266
20.75817	453	233.4814	472.4092
20.76619	480	233.873	479.1338
20.77422	514	234.2588	485.8945
20.78225	490	234.6357	492.6816
20.79027	484	235.0088	499.4912
20.7983	480	235.3721	506.3105
20.80632	479	235.7305	513.1377
20.81435	494	236.0811	519.9609
20.82237	546	236.4287	526.7764
20.8304	537	236.7725	533.5742
20.83842	538	237.1084	540.3438
20.84645	536	237.4346	547.0752
20.85447	522	237.7549	553.7617
20.8625	585	238.0625	560.3896
20.87052	557	238.3633	566.9561
20.87855	559	238.6572	573.4502
20.88657	592	238.9463	579.8682
20.8946	550	239.2324	586.2012
20.90262	571	239.5098	592.4375
20.91065	568	239.7764	598.5635
20.91867	545	240.0322	604.5723
20.9267	598	240.2725	610.4502
20.93472	585	240.502	616.1953
20.94275	628	240.7158	621.793
20.95077	673	240.9219	627.2441
20.9588	633	241.1172	632.5371
20.96682	642	241.3076	637.6689
20.97485	612	241.4922	642.6338
20.98287	618	241.6621	647.4141
20.9909	595	241.8232	652.0098
20.99892	610	241.9795	656.415
21.00695	628	242.1279	660.623
21.01498	705	242.2734	664.6299
21.023	626	242.4072	668.4229
21.03103	652	242.5342	672
21.03905	671	242.6533	675.3535
21.04708	678	242.7676	678.4824
21.0551	731	242.875	681.3789
21.06313	646	242.9756	684.0391
21.07115	661	243.0703	686.458
21.07918	698	243.1523	688.626
21.0872	705	243.2217	690.5391
21.09523	674	243.2861	692.2002
21.10325	683	243.3389	693.6025
21.11128	646	243.3867	694.749
21.1193	667	243.4326	695.6387
21.12733	670	243.4668	696.2617
21.13535	700	243.4941	696.6221
21.14338	667	243.5186	696.7207
21.1514	678	243.5273	696.5469
21.15943	721	243.5283	696.1074
21.16745	701	243.5098	695.3916
21.17548	749	243.4824	694.4092
21.1835	724	243.4473	693.165
21.19153	688	243.4023	691.6582
21.19955	642	243.3525	689.8955
21.20758	711	243.29	687.8721
21.2156	688	243.2197	685.5967
21.22363	720	243.1475	683.0771
21.23166	681	243.0654	680.3125
21.23968	727	242.9785	677.3115
21.24771	679	242.877	674.0664
21.25573	672	242.7666	670.5928
21.26376	708	242.6523	666.8984
21.27178	635	242.5293	662.9854
21.27981	673	242.4023	658.8652
21.28783	689	242.2607	654.5332
21.29586	664	242.1133	650.0049
21.30388	669	241.9648	645.2939
21.31191	650	241.8125	640.4023
21.31993	666	241.6563	635.3398
21.32796	670	241.4814	630.0986
21.33598	680	241.2969	624.6963
21.34401	678	241.1074	619.1455
21.35203	640	240.9092	613.4482
21.36006	642	240.7051	607.6191
21.36808	623	240.4941	601.6641
21.37611	606	240.2803	595.5938
21.38413	541	240.0654	589.4219
21.39216	599	239.8311	583.1367
21.40018	620	239.5859	576.7549
21.40821	575	239.332	570.2871
21.41623	600	239.0723	563.7451
21.42426	552	238.8105	557.1406
21.43229	549	238.5322	550.4678
21.44031	562	238.2451	543.7432
21.44834	565	237.9521	536.9775
21.45636	563	237.6572	530.1807
21.46439	480	237.3623	523.3643
21.47241	523	237.0557	516.5254
21.48044	501	236.7402	509.6719
21.48846	557	236.4189	502.8174
21.49649	465	236.0967	495.9707
21.50451	487	235.7705	489.1396
21.51254	470	235.4316	482.3213
21.52056	499	235.0859	475.5283
21.52859	472	234.7402	468.7754
21.53661	433	234.3857	462.0605
21.54464	450	234.0273	455.3945
21.55266	484	233.6514	448.7744
21.56069	399	233.2676	442.2139
21.56871	425	232.8799	435.7256
21.57674	409	232.4814	429.3105
21.58476	461	232.0762	422.9824
21.59279	384	231.6582	416.7432
21.60081	413	231.2344	410.6094
21.60884	416	230.8105	404.5996
21.61687	402	230.4111	398.749
21.62489	383	230.0039	393.0361
21.63292	369	229.5752	387.4639
21.64094	383	229.1357	382.0605
21.64897	380	228.6963	376.8545
21.65699	391	228.2412	371.8486
21.66502	369	227.7773	367.0752
21.67304	336	227.3027	362.5566
21.68107	372	226.8242	358.3271
21.68909	358	226.3457	354.4238
21.69712	344	225.8877	350.8994
21.70514	328	225.4209	347.7607
21.71317	337	224.9453	345.0488
21.72119	334	224.4629	342.8057
21.72922	313	223.9756	341.0801
21.73724	365	223.4766	339.9082
21.74527	359	222.9707	339.3447
21.75329	307	222.4658	339.4434
21.76132	326	221.9648	340.2559
21.76934	336	221.457	341.8164
21.77737	313	220.9385	344.168
21.78539	334	220.4141	347.3555
21.79342	310	219.8877	351.4189
21.80145	312	219.3555	356.3867
21.80947	330	218.8203	362.2881
21.8175	362	218.2676	369.124
21.82552	365	217.707	376.915
21.83355	412	217.1465	385.6689
21.84157	386	216.5996	395.3896
21.8496	369	216.0518	406.042
21.85762	425	215.4805	417.5752
21.86565	412	214.8984	429.9609
21.87367	393	214.3174	443.1621
21.8817	432	213.7627	457.1465
21.88972	444	213.2051	471.8193
21.89775	472	212.6318	487.0938
21.90577	488	212.0498	502.9014
21.9138	508	211.4648	519.166
21.92182	523	210.8623	535.791
21.92985	542	210.252	552.7031
21.93787	541	209.6426	569.8291
21.9459	579	209.0596	587.1133
21.95392	613	208.4766	604.4541
21.96195	605	207.8799	621.7627
21.96997	631	207.2734	638.9766
21.978	641	206.6631	656.0352
21.98602	675	206.0439	672.8721
21.99405	679	205.4199	689.4346
22.00208	722	204.7969	705.668
22.0101	721	204.2119	721.5537
22.01813	753	203.6289	736.9941
22.02615	793	203.0459	751.9268
22.03418	728	202.4463	766.2646
22.0422	753	201.8398	779.9414
22.05023	785	201.2295	792.8789
22.05825	785	200.6123	804.9805
22.06628	870	199.9844	816.1426
22.0743	781	199.3516	826.2627
22.08233	833	198.7139	835.2227
22.09035	876	198.0752	842.9023
22.09838	856	197.4307	849.1738
22.1064	924	196.7842	853.9121
22.11443	900	196.1377	856.9961
22.12245	826	195.4922	858.3066
22.13048	859	194.8467	857.7383
22.1385	856	194.2197	855.2139
22.14653	919	193.5938	850.6416
22.15455	887	192.957	843.957
22.16258	833	192.3154	835.1367
22.1706	873	191.6543	824.166
22.17863	797	190.9854	811.084
22.18666	813	190.3174	795.958
22.19468	772	189.6465	778.8721
22.20271	748	188.9668	759.9375
22.21073	776	188.2617	739.2832
22.21876	712	187.5439	717.0918
22.22678	676	186.8291	693.5693
22.23481	645	186.2383	669.0479
22.24283	652	185.623	643.6006
22.25086	629	184.9648	617.4404
22.25888	615	184.2725	590.8105
22.26691	600	183.5635	563.9639
22.27493	532	182.8115	537.1006
22.28296	478	182.0391	510.4629
22.29098	486	181.2686	484.2754
22.29901	477	180.8242	459.0508
22.30703	430	180.333	434.584
22.31506	394	179.79	411.0137
22.32308	365	179.1895	388.457
22.33111	344	178.5605	367.041
22.33913	343	177.9033	346.8389
22.34716	350	177.2324	327.918
22.35518	329	176.5635	310.3213
22.36321	273	176.0381	294.1992
22.37123	282	175.5068	279.3926
22.37926	274	174.9316	265.834
22.38729	223	174.3359	253.5068
22.39531	224	173.7168	242.3545
22.40334	224	173.0879	232.3281
22.41136	226	172.46	223.3691
22.41939	227	171.8135	215.3848
22.42741	207	171.1563	208.3027
22.43544	190	170.4736	202.0322
22.44346	183	169.7793	196.5088
22.45149	192	169.0859	191.6689
22.45951	170	168.4795	187.5264
22.46754	164	167.832	183.8838
22.47556	180	167.1699	180.7021
22.48359	160	166.4775	177.9063
22.49161	166	165.7705	175.457
22.49964	165	165.0127	173.2715
22.50766	168	164.2314	171.3291
22.51569	174	163.4512	169.6172
22.52371	165	163.2324	168.6611
22.53174	154	162.9434	167.7988
22.53976	171	162.6543	167.0742
22.54779	151	162.4365	166.5361
22.55581	168	162.1475	166.0244
22.56384	173	161.8594	165.5938
22.57187	160	161.9912	165.6504
22.57989	169	162.0967	165.7373
22.58792	171	162.167	165.8359
22.59594	176	162.1875	165.9238
22.60397	153	162.1816	166.0195
22.61199	176	162.1533	166.1221
22.62002	154	162.1133	166.2373
22.62804	169	162.0566	166.3574
22.63607	144	161.9912	166.4902
22.64409	156	161.9219	166.6357
22.65212	185	161.8506	166.7969
22.66014	169	161.7793	166.9736
22.66817	187	161.6768	167.1348
22.67619	194	161.5596	167.2949
22.68422	184	161.4414	167.4697
22.69224	150	161.3467	167.6816
22.70027	179	161.2334	167.8887
22.70829	189	161.0889	168.0801
22.71632	191	160.9297	168.2695
22.72434	168	160.7695	168.4746
22.73237	166	160.7373	168.8193
22.74039	163	160.6914	169.167
22.74842	178	160.6016	169.4863
22.75644	174	160.46	169.7695
22.76447	173	160.293	170.042
22.7725	177	160.0928	170.2969
22.78052	162	159.876	170.5508
22.78855	156	159.6602	170.8223
22.79657	178	159.6934	171.3594
22.8046	176	159.6836	171.8701
22.81262	169	159.6426	172.3672
22.82065	155	159.5449	172.8232
22.82867	184	159.417	173.2686
22.8367	174	159.2705	173.7129
22.84472	179	159.1152	174.166
22.85275	220	158.9609	174.6367
22.86077	178	158.9014	175.2236
22.8688	156	158.8232	175.8105
22.87682	216	158.7324	176.4043
22.88485	151	158.6279	177.0029
22.89287	187	158.5029	177.6025
22.9009	168	158.3682	178.2129
22.90892	182	158.2246	178.835
22.91695	186	158.0713	179.4668
22.92497	186	157.9121	180.1152
22.933	201	157.7432	180.7744
22.94102	195	157.5693	181.4521
22.94905	188	157.3965	182.1504
22.95708	198	157.2266	182.876
22.9651	180	157.0439	183.6104
22.97313	195	156.8623	184.3682
22.98115	198	156.6621	185.1299
22.98918	208	156.4473	185.9014
22.9972	212	156.208	186.6699
23.00523	212	155.957	187.4512
23.01325	164	155.7061	188.2549
23.02128	219	155.6084	189.2344
23.0293	184	155.4805	190.207
23.03733	173	155.3369	191.1875
23.04535	190	155.1523	192.1504
23.05338	220	154.9473	193.1152
23.0614	218	154.7314	194.0938
23.06943	197	154.5117	195.0889
23.07745	198	154.292	196.1074
23.08548	207	154.1279	197.2041
23.0935	183	153.9463	198.3057
23.10153	215	153.7578	199.4219
23.10955	205	153.5605	200.5498
23.11758	204	153.3584	201.6953
23.1256	213	153.1475	202.8506
23.13363	218	152.9307	204.0225
23.14165	211	152.6992	205.1963
23.14968	198	152.459	206.3828
23.15771	187	152.2158	207.583
23.16573	232	151.9707	208.7988
23.17376	228	151.7246	210.0322
23.18178	206	151.4678	211.2695
23.18981	204	151.2051	212.5166
23.19783	200	150.9434	213.7793
23.20586	207	150.6699	215.0439
23.21388	204	150.3848	216.3096
23.22191	217	150.0938	217.5801
23.22993	216	149.7998	218.8594
23.23796	230	149.5068	220.1484
23.24598	228	149.2754	221.5088
23.25401	233	149.0225	222.8545
23.26203	235	148.7588	224.1953
23.27006	220	148.4785	225.5264
23.27808	221	148.1914	226.8525
23.28611	219	147.8994	228.1777
23.29413	208	147.6064	229.5029
23.30216	228	147.3135	230.8291
23.31018	259	147.0293	232.1621
23.31821	237	146.7393	233.4863
23.32623	245	146.4463	234.8057
23.33426	222	146.1494	236.1143
23.34229	244	145.8486	237.4141
23.35031	225	145.5479	238.7041
23.35834	240	145.2451	239.9854
23.36636	244	144.9316	241.2441
23.37439	209	144.6123	242.4854
23.38241	250	144.291	243.71
23.39044	224	143.9629	244.915
23.39846	232	143.6289	246.0977
23.40649	242	143.293	247.2598
23.41451	275	142.9443	248.3916
23.42254	240	142.5918	249.4971
23.43056	271	142.2354	250.5791
23.43859	245	141.8789	251.6367
23.44661	257	141.5225	252.6699
23.45464	258	141.1563	253.6689
23.46266	269	140.7773	254.626
23.47069	235	140.3984	255.5557
23.47871	257	140.0635	256.5
23.48674	224	139.7266	257.4102
23.49476	242	139.3633	258.2627
23.50279	261	138.9873	259.0693
23.51081	252	138.6113	259.8408
23.51884	275	138.2266	260.5684
23.52687	258	137.8281	261.2441
23.53489	240	137.4307	261.8828
23.54292	259	137.0801	262.5293
23.55094	261	136.7236	263.1309
23.55897	248	136.3506	263.6738
23.56699	245	135.9697	264.167
23.57502	282	135.584	264.6143
23.58304	274	135.1963	265.0146
23.59107	228	134.8018	265.3633
23.59909	258	134.3975	265.6572
23.60712	273	133.9873	265.8994
23.61514	262	133.5723	266.0898
23.62317	271	133.1553	266.2314
23.63119	270	132.7383	266.3262
23.63922	258	132.3125	266.3633
23.64724	268	131.8799	266.3447
23.65527	245	131.4453	266.2764
23.66329	241	131.0088	266.1563
23.67132	262	130.5723	265.9863
23.67934	266	130.1104	265.7422
23.68737	259	129.6377	265.4365
23.69539	290	129.166	265.082
23.70342	257	128.7705	264.7559
23.71144	273	128.373	264.376
23.71947	266	127.9404	263.9121
23.72749	251	127.4922	263.3818
23.73552	260	127.0439	262.8037
23.74354	247	126.5762	262.1563
23.75157	249	126.0967	261.4492
23.7596	257	125.6182	260.6943
23.76762	257	125.2012	259.9531
23.77565	314	124.7754	259.1563
23.78367	264	124.332	258.2939
23.7917	245	123.8809	257.3779
23.79972	251	123.4258	256.4131
23.80775	241	122.9688	255.4014
23.81577	264	122.5078	254.3418
23.8238	270	122.0352	253.2266
23.83182	264	121.5566	252.0635
23.83985	240	121.0693	250.8506
23.84787	260	120.5791	249.5938
23.8559	253	120.0898	248.2979
23.86392	241	119.5957	246.959
23.87195	270	119.0908	245.5723
23.87997	250	118.5879	244.1484
23.888	243	118.0869	242.6924
23.89602	249	117.585	241.2012
23.90405	215	117.0557	239.6494
23.91207	240	116.5146	238.0527
23.9201	249	115.9746	236.4258
23.92812	266	115.5273	234.8604
23.93615	229	115.0723	233.2598
23.94417	249	114.584	231.5977
23.9522	209	114.0801	229.8916
23.96022	232	113.5732	228.1582
23.96825	209	113.0488	226.3828
23.97628	248	112.5166	224.5742
23.9843	207	111.9844	222.7451
23.99233	248	111.5078	220.9502
24.00035	227	111.0244	219.127
24.00838	215	110.5254	217.2695
24.0164	221	110.0186	215.3877
24.02443	211	109.5107	213.4863
24.03245	235	109.0029	211.5703
24.04048	257	108.4932	209.6377
24.0485	228	107.9707	207.6787
24.05653	207	107.4434	205.7031
24.06455	203	106.9053	203.7051
24.07258	214	106.3623	201.6934
24.0806	219	105.8213	199.6738
24.08863	224	105.2773	197.6455
24.09665	215	104.7236	195.5996
24.10468	201	104.1709	193.5508
24.1127	198	103.6221	191.501
24.12073	188	103.0723	189.4473
24.12875	201	102.499	187.3701
24.13678	202	101.916	185.2813
24.1448	219	101.334	183.1953
24.15283	177	100.8467	181.2061
24.16085	185	100.3496	179.21
24.16888	198	99.82422	177.1895
24.1769	154	99.28613	175.1611
24.18493	178	98.74316	173.1338
24.19296	163	98.18652	171.1006
24.20098	178	97.62402	169.0693
24.20901	166	97.0625	167.0479
24.21703	156	96.5459	165.082
24.22506	152	96.02344	163.1201
24.23308	168	95.48926	161.1582
24.24111	139	94.94922	159.2021
24.24913	154	94.41016	157.2598
24.25716	160	93.87207	155.332
24.26518	176	93.33008	153.415
24.27321	157	92.78027	151.5039
24.28123	140	92.22559	149.6045
24.28926	149	91.66113	147.71
24.29728	126	91.0918	145.8271
24.30531	128	90.52441	143.9619
24.31333	140	89.95508	142.1123
24.32136	159	89.37793	140.2715
24.32938	136	88.80176	138.4502
24.33741	126	88.22852	136.6484
24.34543	129	87.6543	134.8643
24.35346	124	87.0625	133.0811
24.36148	115	86.46387	131.3096
24.36951	139	85.86621	129.5576
24.37753	138	85.35352	127.9092
24.38556	132	84.83301	126.2725
24.39359	94	84.28711	124.6299
24.40161	120	83.72949	122.9951
24.40964	103	83.17383	121.3828
24.41766	109	82.61621	119.7871
24.42569	115	82.05176	118.2051
24.43371	113	81.48926	116.6455
24.44174	102	80.95313	115.1328
24.44976	122	80.41406	113.6387
24.45779	95	79.86719	112.1582
24.46581	106	79.31738	110.6973
24.47384	104	78.76953	109.2607
24.48186	113	78.22461	107.8506
24.48989	111	77.67383	106.4609
24.49791	112	77.11816	105.0928
24.50594	98	76.56055	103.75
24.51396	92	75.99512	102.4307
24.52199	106	75.42676	101.1396
24.53001	94	74.86035	99.8877
24.53804	96	74.28906	98.66895
24.54606	93	73.71484	97.49023
24.55409	97	73.1416	96.36035
24.56211	94	72.57031	95.28613
24.57014	99	72	94.27246
24.57817	76	71.41797	93.31445
24.58619	78	70.83105	92.42676
24.59422	90	70.24609	91.62695
24.60224	90	69.72656	90.98535
24.61027	85	69.20313	90.44824
24.61829	71	68.65723	90.00684
24.62632	93	68.10156	89.6875
24.63434	94	67.54785	89.51758
24.64237	82	67.01465	89.53125
24.65039	83	66.47656	89.71875
24.65842	77	65.94141	90.10449
24.66644	76	65.4082	90.7041
24.67447	83	64.87305	91.5332
24.68249	92	64.33691	92.60645
24.69052	94	63.7998	93.94336
24.69854	102	63.26465	95.55957
24.70657	110	62.73047	97.46973
24.71459	100	62.19336	99.67969
24.72262	100	61.65527	102.2021
24.73064	113	61.11816	105.0439
24.73867	88	60.57617	108.2021
24.74669	102	60.03223	111.6777
24.75472	114	59.49023	115.4697
24.76274	115	58.94434	119.5605
24.77077	136	58.39844	123.9365
24.7788	155	57.85352	128.5771
24.78682	123	57.30957	133.4561
24.79485	171	56.76855	138.54
24.80287	139	56.22852	143.7891
24.8109	159	55.68555	149.1533
24.81892	158	55.14453	154.5908
24.82695	153	54.62891	160.0684
24.83497	142	54.11523	165.5068
24.843	185	53.5957	170.8369
24.85102	190	53.06836	175.9951
24.85905	169	52.54395	180.9277
24.86707	198	52.04492	185.5938
24.8751	186	51.54395	189.9053
24.88312	204	51.03223	193.793
24.89115	201	50.51855	197.21
24.89917	200	50.00684	200.1104
24.9072	175	49.51465	202.4668
24.91522	206	49.02246	204.2227
24.92325	211	48.52637	205.3428
24.93127	197	48.03027	205.8086
24.9393	212	47.5332	205.6074
24.94732	224	47.03516	204.7363
24.95535	198	46.53809	203.2041
24.96338	202	46.03711	201.0176
24.9714	210	45.53516	198.2041
24.97943	190	45.0332	194.7988
24.98745	171	44.53418	190.8418
24.99548	189	44.03711	186.3809
25.0035	183	43.54102	181.4629
25.01153	168	43.04199	176.1445
25.01955	150	42.54688	170.4902
25.02758	157	42.06445	164.5732
25.0356	164	41.58398	158.4443
25.04363	162	41.0918	152.1553
25.05165	149	40.5957	145.7754
25.05968	125	40.10254	139.3721
25.0677	139	39.65234	133.0439
25.07573	139	39.20215	126.7969
25.08375	113	38.74121	120.6729
25.09178	110	38.27637	114.7217
25.0998	107	37.81543	108.9873
25.10783	100	37.3457	103.4922
25.11585	93	36.87402	98.2666
25.12388	90	36.40527	93.33887
25.1319	91	35.9707	88.75391
25.13993	103	35.53711	84.4873
25.14795	81	35.09863	80.54004
25.15598	104	34.65723	76.91309
25.16401	75	34.21484	73.60352
25.17203	57	33.77051	70.60449
25.18006	67	33.32715	67.90625
25.18808	62	32.88672	65.49805
25.19611	57	32.4541	63.36914
25.20413	59	32.02539	61.49902
25.21216	57	31.5957	59.86426
25.22018	54	31.16699	58.4502
25.22821	64	30.7373	57.23242
25.23623	67	30.30762	56.19727
25.24426	42	29.88086	55.32617
25.25228	53	29.46582	54.61035
25.26031	51	29.0498	54.02246
25.26833	49	28.62988	53.54199
25.27636	53	28.20898	53.15625
25.28438	54	27.79199	52.85645
25.29241	53	27.39355	52.64355
25.30043	60	26.99512	52.4873
25.30846	56	26.59766	52.37695
25.31648	58	26.19824	52.29883
25.32451	66	25.7998	52.24512
25.33253	61	25.39941	52.20313
25.34056	57	24.99902	52.16699
25.34859	60	24.60156	52.13086
25.35661	42	24.22266	52.10059
25.36464	68	23.8457	52.05469
25.37266	72	23.46875	51.97852
25.38069	65	23.09277	51.86914
25.38871	50	22.71484	51.71582
25.39674	65	22.33789	51.51367
25.40476	52	21.96484	51.25977
25.41279	64	21.59961	50.9541
25.42081	55	21.23633	50.58203
25.42884	45	20.875	50.14063
25.43686	57	20.51563	49.62793
25.44489	59	20.15918	49.03906
25.45291	51	19.81152	48.37891
25.46094	65	19.46191	47.6377
25.46896	58	19.11523	46.81738
25.47699	50	18.76855	45.91797
25.48501	52	18.42383	44.94434
25.49304	49	18.08203	43.89941
25.50106	37	17.74121	42.78613
25.50909	37	17.40332	41.6123
25.51711	55	17.06738	40.38379
25.52514	42	16.73145	39.10547
25.53316	45	16.39746	37.78516
25.54119	37	16.06445	36.43066
25.54922	32	15.73242	35.05371
25.55724	22	15.4043	33.66113
25.56527	26	15.11035	32.29395
25.57329	29	14.81348	30.92285
25.58132	25	14.5166	29.56055
25.58934	23	14.2168	28.20898
25.59737	32	13.91602	26.87891
25.60539	25	13.61719	25.5791
25.61342	18	13.32031	24.31543
25.62144	21	13.02734	23.09375
25.62947	14	12.75	21.93164
25.63749	19	12.47461	20.81738
25.64552	14	12.2002	19.75391
25.65354	11	11.9248	18.73926
25.66157	13	11.65137	17.77832
25.66959	15	11.37891	16.87012
25.67762	15	11.1084	16.01367
25.68564	9	10.83984	15.21094
25.69367	11	10.57227	14.45703
25.70169	17	10.30762	13.75293
25.70972	11	10.0459	13.09668
25.71774	9	9.788086	12.48633
25.72577	10	9.532227	11.91699
25.7338	13	9.277344	11.38477
25.74182	9	9.023438	10.8877
25.74985	12	8.773438	10.42383
25.75787	9	8.53125	9.996094
25.7659	10	8.291992	9.59668
25.77392	7	8.055664	9.222656
25.78195	6	7.822266	8.870117
25.78997	5	7.591797	8.537109
25.798	7	7.363281	8.222656
25.80602	3	7.139648	7.924805
25.81405	9	6.917969	7.640625
25.82207	7	6.762695	7.431641
25.8301	7	6.608398	7.232422
25.83812	9	6.441406	7.026367
25.84615	9	6.268555	6.820313
25.85417	3	6.091797	6.613281
25.8622	7	5.913086	6.40918
25.87022	10	5.737305	6.209961
25.87825	6	5.834961	6.287109
25.88627	7	5.916016	6.348633
25.8943	6	5.978516	6.393555
25.90232	7	6.023438	6.420898
25.91035	3	6.058594	6.439453
25.91838	6	6.084961	6.449219
25.9264	6	6.106445	6.454102
25.93443	5	6.12793	6.459961
25.94245	6	6.172852	6.489258
25.95048	6	6.21582	6.516602
25.9585	6	6.249023	6.53418
25.96653	10	6.277344	6.547852
25.97455	10	6.298828	6.554688
25.98258	18	6.318359	6.55957
25.9906	6	6.335938	6.5625
25.99863	7	6.348633	6.561523
26.00665	7	6.358398	6.557617
26.01468	7	6.361328	6.546875
26.0227	4	6.360352	6.53418
26.03073	5	6.359375	6.520508
26.03875	10	6.380859	6.53125
26.04678	7	6.394531	6.53418
26.0548	17	6.402344	6.53125
26.06283	9	6.398438	6.518555
26.07085	9	6.389648	6.500977
26.07888	7	6.368164	6.47168
26.0869	4	6.34082	6.436523
26.09493	6	6.313477	6.401367
26.10295	7	6.384766	6.466797
26.11098	9	6.445313	6.521484
26.11901	9	6.495117	6.56543
26.12703	9	6.53125	6.59668
26.13506	10	6.55957	6.621094
26.14308	6	6.582031	6.639648
26.15111	10	6.602539	6.655273
26.15913	5	6.62207	6.671875
26.16716	9	6.665039	6.712891
26.17518	11	6.705078	6.749023
26.18321	12	6.736328	6.779297
26.19123	4	6.764648	6.804688
26.19926	6	6.791992	6.830078
26.20728	8	6.817383	6.853516
26.21531	7	6.842773	6.876953
26.22333	6	6.861328	6.895508
26.23136	10	6.87793	6.910156
26.23938	10	6.890625	6.921875
26.24741	14	6.901367	6.931641
26.25543	12	6.912109	6.941406
26.26346	13	6.920898	6.950195
26.27148	7	6.926758	6.954102
26.27951	8	6.931641	6.958984
26.28753	13	6.9375	6.963867
26.29556	9	6.9375	6.964844
26.30359	17	6.932617	6.958984
26.31161	9	6.924805	6.951172
26.31964	10	6.916016	6.943359
26.32766	6	6.959961	6.987305
26.33569	7	6.999023	7.026367
26.34371	7	7.036133	7.063477
26.35174	6	7.066406	7.094727
26.35976	10	7.09375	7.123047
26.36779	11	7.121094	7.151367
26.37581	10	7.148438	7.180664
26.38384	9	7.175781	7.208984
26.39186	15	7.202148	7.236328
26.39989	6	7.226563	7.263672
26.40791	10	7.250977	7.290039
26.41594	10	7.274414	7.31543
26.42396	12	7.298828	7.341797
26.43199	9	7.319336	7.366211
26.44001	5	7.339844	7.389648
26.44804	8	7.358398	7.412109
26.45606	12	7.375977	7.433594
26.46409	5	7.393555	7.455078
26.47211	7	7.408203	7.473633
26.48014	17	7.420898	7.492188
26.48816	9	7.433594	7.509766
26.49619	10	7.446289	7.52832
26.50422	9	7.457031	7.544922
26.51224	12	7.46582	7.560547
26.52027	4	7.472656	7.574219
26.52829	7	7.480469	7.588867
26.53632	8	7.487305	7.603516
26.54434	7	7.491211	7.615234
26.55237	7	7.495117	7.62793
26.56039	9	7.511719	7.652344
26.56842	6	7.52832	7.677734
26.57644	4	7.558594	7.717773
26.58447	6	7.582031	7.75
26.59249	3	7.604492	7.783203
26.60052	11	7.647461	7.834961
26.60854	10	7.69043	7.888672
26.61657	13	7.730469	7.939453
26.62459	7	7.768555	7.988281
26.63262	9	7.802734	8.032227
26.64064	6	7.834961	8.076172
26.64867	12	7.865234	8.117188
26.65669	14	7.892578	8.155273
26.66472	12	7.917969	8.192383
26.67274	5	7.94043	8.226563
26.68077	9	7.961914	8.259766
26.68879	5	7.983398	8.292969
26.69682	4	8.014648	8.336914
26.70484	10	8.043945	8.37793
26.71287	12	8.072266	8.418945
26.7209	8	8.103516	8.463867
26.72892	11	8.130859	8.504883
26.73695	11	8.157227	8.545898
26.74497	18	8.182617	8.584961
26.753	17	8.208008	8.625977
26.76102	13	8.230469	8.664063
26.76905	11	8.25	8.700195
26.77707	11	8.269531	8.736328
26.7851	9	8.310547	8.794922
26.79312	6	8.348633	8.851563
26.80115	14	8.382813	8.905273
26.80917	15	8.414063	8.958008
26.8172	9	8.446289	9.010742
26.82522	12	8.478516	9.06543
26.83325	7	8.508789	9.120117
26.84127	11	8.540039	9.175781
26.8493	8	8.572266	9.233398
26.85732	15	8.602539	9.291016
26.86535	8	8.631836	9.348633
26.87337	10	8.661133	9.407227
26.8814	7	8.688477	9.46582
26.88942	10	8.71582	9.524414
26.89745	12	8.742188	9.584961
26.90547	8	8.768555	9.645508
26.9135	9	8.793945	9.707031
26.92152	11	8.818359	9.768555
26.92955	12	8.84082	9.829102
26.93757	11	8.863281	9.891602
26.9456	8	8.888672	9.958008
26.95363	15	8.910156	10.02246
26.96165	10	8.931641	10.08691
26.96968	7	8.952148	10.15234
26.9777	10	8.972656	10.21875
26.98573	8	8.992188	10.28613
26.99375	18	9.005859	10.34863
27.00178	13	9.020508	10.41309
27.0098	16	9.064453	10.50781
27.01783	11	9.104492	10.59961
27.02585	6	9.138672	10.6875
27.03388	11	9.169922	10.77246
27.0419	13	9.200195	10.85938
27.04993	16	9.228516	10.94336
27.05795	10	9.255859	11.02832
27.06598	14	9.283203	11.11328
27.074	11	9.31543	11.20605
27.08203	14	9.347656	11.29785
27.09005	15	9.376953	11.3877
27.09808	11	9.404297	11.47754
27.1061	16	9.431641	11.56836
27.11413	12	9.459961	11.65918
27.12215	16	9.486328	11.75098
27.13018	10	9.511719	11.84082
27.1382	14	9.536133	11.93066
27.14623	12	9.557617	12.01758
27.15425	11	9.578125	12.10352
27.16228	14	9.597656	12.19043
27.17031	23	9.617188	12.27637
27.17833	22	9.634766	12.36133
27.18636	18	9.652344	12.44629
27.19438	13	9.670898	12.53223
27.20241	16	9.689453	12.61816
27.21043	18	9.703125	12.7002
27.21846	18	9.711914	12.77637
27.22648	21	9.72168	12.85352
27.23451	7	9.764648	12.96387
27.24253	14	9.804688	13.07031
27.25056	13	9.836914	13.16895
27.25858	14	9.865234	13.2627
27.26661	14	9.892578	13.35645
27.27463	23	9.918945	13.44727
27.28266	10	9.942383	13.53516
27.29068	18	9.96582	13.62207
27.29871	23	9.998047	13.71582
27.30673	19	10.02832	13.80859
27.31476	16	10.05566	13.89648
27.32278	21	10.08105	13.98047
27.33081	10	10.10645	14.06445
27.33883	20	10.13184	14.14648
27.34686	16	10.15625	14.22656
27.35489	19	10.17871	14.30273
27.36291	16	10.19922	14.37695
27.37094	15	10.21777	14.44629
27.37896	20	10.23535	14.51367
27.38699	11	10.25293	14.5791
27.39501	13	10.27051	14.64258
27.40304	21	10.28516	14.70117
27.41106	20	10.2998	14.75781
27.41909	17	10.31641	14.81641
27.42711	14	10.33398	14.87207
27.43514	27	10.34277	14.91699
27.44316	14	10.34668	14.95605
27.45119	22	10.35156	14.99219
27.45921	19	10.39258	15.06348
27.46724	17	10.43164	15.12988
27.47526	24	10.45996	15.18457
27.48329	10	10.48438	15.23242
27.49131	13	10.50879	15.27734
27.49934	16	10.53125	15.31934
27.50736	16	10.55176	15.35547
27.51539	14	10.57129	15.38867
27.52341	11	10.60059	15.42969
27.53144	14	10.62988	15.46777
27.53946	15	10.6543	15.5
27.54749	13	10.67676	15.52637
27.55552	27	10.69824	15.5498
27.56354	15	10.71875	15.57031
27.57157	26	10.73926	15.58887
27.57959	29	10.75977	15.60352
27.58762	20	10.77832	15.61523
27.59564	19	10.79492	15.62207
27.60367	19	10.81055	15.625
27.61169	16	10.8252	15.62695
27.61972	6	10.84082	15.625
27.62774	16	10.85254	15.61816
27.63577	8	10.86426	15.60938
27.64379	16	10.87891	15.60059
27.65182	17	10.89258	15.58984
27.65984	20	10.89844	15.56836
27.66787	10	10.89941	15.54102
27.67589	17	10.90137	15.5127
27.68392	18	10.93848	15.5166
27.69194	17	10.97266	15.5166
27.69997	15	10.99707	15.50586
27.70799	18	11.0166	15.48828
27.71602	14	11.03711	15.46875
27.72404	13	11.05762	15.44922
27.73207	14	11.07422	15.42383
27.7401	19	11.0918	15.39746
27.74812	12	11.11523	15.37598
27.75615	11	11.13965	15.35449
27.76417	7	11.15918	15.32715
27.7722	13	11.17676	15.29688
27.78022	14	11.19238	15.26367
27.78825	22	11.20801	15.22852
27.79627	12	11.22363	15.19336
27.8043	13	11.24023	15.15918
27.81232	13	11.25586	15.12109
27.82035	21	11.26855	15.08105
27.82837	16	11.2793	15.03906
27.8364	8	11.29102	14.99609
27.84442	11	11.30664	14.95801
27.85245	9	11.32129	14.91797
27.86047	7	11.33398	14.87598
27.8685	20	11.3457	14.83301
27.87652	15	11.35645	14.78809
27.88455	13	11.3623	14.73828
27.89257	12	11.36621	14.6875
27.9006	9	11.37012	14.63672
27.90862	10	11.39355	14.60547
27.91665	16	11.41504	14.57227
27.92467	18	11.43359	14.53711
27.9327	19	11.45117	14.50098
27.94073	16	11.46875	14.46582
27.94875	16	11.48438	14.42871
27.95678	16	11.49805	14.3916
27.9648	11	11.5127	14.35547
27.97283	16	11.52539	14.31934
27.98085	19	11.53809	14.2832
27.98888	16	11.54883	14.24805
27.9969	12	11.56055	14.21289
28.00493	19	11.57129	14.18066
28.01295	13	11.58105	14.14844
28.02098	14	11.58984	14.11719
28.029	15	11.59863	14.08887
28.03703	18	11.6084	14.06348
28.04505	11	11.61914	14.04199
28.05308	12	11.62695	14.02051
28.0611	15	11.63379	14.00195
28.06913	13	11.64063	13.9873
28.07715	16	11.65137	13.98145
28.08518	8	11.66211	13.97852
28.0932	12	11.66895	13.97852
28.10123	13	11.67578	13.98242
28.10925	14	11.68164	13.99219
28.11728	19	11.69336	14.01465
28.12531	17	11.7041	14.04297
28.13333	13	11.71191	14.0752
28.14136	16	11.7168	14.11426
28.14938	19	11.72266	14.16211
28.15741	23	11.73145	14.22168
28.16543	19	11.73828	14.28906
28.17346	13	11.74512	14.36621
28.18148	15	11.74902	14.45215
28.18951	14	11.75195	14.54785
28.19753	14	11.75391	14.6543
28.20556	13	11.75586	14.77148
28.21358	17	11.75684	14.90137
28.22161	14	11.76758	15.05273
28.22963	16	11.77734	15.21582
28.23766	24	11.78613	15.38965
28.24568	15	11.79395	15.5752
28.25371	16	11.80078	15.77246
28.26173	26	11.80762	15.98145
28.26976	24	11.81445	16.20215
28.27778	21	11.82031	16.43262
28.28581	14	11.8252	16.67285
28.29383	18	11.83008	16.92188
28.30186	18	11.83398	17.17871
28.30989	20	11.83887	17.44434
28.31791	20	11.84277	17.71582
28.32594	20	11.8457	17.99121
28.33396	15	11.84863	18.27051
28.34199	16	11.85059	18.55078
28.35001	15	11.85156	18.83105
28.35804	15	11.85156	19.11035
28.36606	11	11.85156	19.38672
28.37409	15	11.85156	19.6582
28.38211	16	11.85645	19.92871
28.39014	18	11.85938	20.19043
28.39816	18	11.86133	20.44043
28.40619	26	11.86133	20.67773
28.41421	30	11.86133	20.90137
28.42224	12	11.86035	21.1084
28.43026	20	11.8584	21.29883
28.43829	12	11.85547	21.4707
28.44631	17	11.85352	21.62207
28.45434	18	11.86035	21.76172
28.46236	18	11.86719	21.87891
28.47039	20	11.87305	21.9707
28.47841	18	11.87793	22.03906
28.48644	16	11.88379	22.08105
28.49446	21	11.88867	22.09668
28.50249	14	11.89258	22.08398
28.51052	23	11.89551	22.04492
28.51854	13	11.89746	21.97852
28.52657	12	11.89941	21.88477
28.53459	20	11.90137	21.76465
28.54262	17	11.90234	21.61816
28.55064	19	11.90332	21.44727
28.55867	31	11.90332	21.25195
28.56669	20	11.90234	21.03418
28.57472	23	11.90039	20.79492
28.58274	16	11.89941	20.53613
28.59077	26	11.89746	20.26074
28.59879	14	11.89551	19.96875
28.60682	21	11.89258	19.66309
28.61484	20	11.88867	19.34473
28.62287	23	11.88477	19.01758
28.63089	16	11.87988	18.68262
28.63892	18	11.87598	18.34375
28.64694	15	11.87207	18.00195
28.65497	19	11.86816	17.66113
28.66299	22	11.86133	17.31738
28.67102	19	11.85352	16.97656
28.67904	15	11.84473	16.64063
28.68707	20	11.85645	16.33301
28.6951	23	11.86621	16.03125
28.70312	11	11.87402	15.7373
28.71115	18	11.87891	15.45313
28.71917	10	11.88281	15.18066
28.7272	11	11.88574	14.91895
28.73522	16	11.8877	14.6709
28.74325	10	11.88965	14.4375
28.75127	20	11.88965	14.21777
28.7593	13	11.89063	14.0127
28.76732	7	11.88965	13.82227
28.77535	17	11.8877	13.64551
28.78337	14	11.88574	13.48438
28.7914	16	11.88477	13.33887
28.79942	13	11.88379	13.20703
28.80745	13	11.88086	13.08887
28.81547	14	11.87793	12.98242
28.8235	13	11.87402	12.88965
28.83152	11	11.87012	12.80859
28.83955	11	11.86621	12.73926
28.84757	9	11.86035	12.67871
28.8556	18	11.85156	12.62695
28.86362	16	11.84277	12.58398
28.87165	8	11.83301	12.5498
28.87967	13	11.82422	12.52441
28.8877	12	11.81152	12.50488
28.89573	13	11.79492	12.48828
28.90375	11	11.7793	12.47949
28.91178	12	11.79688	12.50977
28.9198	13	11.81152	12.54492
28.92783	12	11.8252	12.58203
28.93585	22	11.83301	12.61914
28.94388	9	11.83887	12.6582
28.9519	19	11.84277	12.69922
28.95993	9	11.8457	12.74316
28.96795	9	11.84863	12.78906
28.97598	20	11.84961	12.83496
28.984	14	11.84863	12.88281
28.99203	14	11.84668	12.92871
29.00005	12	11.84277	12.97559
29.00808	12	11.83887	13.02246
29.0161	12	11.83789	13.07129
29.02413	11	11.83594	13.12109
29.03215	11	11.83301	13.16797
29.04018	14	11.83008	13.21387
29.0482	10	11.82422	13.25488
29.05623	16	11.81738	13.29297
29.06425	12	11.81055	13.3291
29.07228	15	11.80664	13.36719
29.08031	13	11.7998	13.39844
29.08833	16	11.79102	13.4248
29.09636	10	11.78125	13.44629
29.10438	14	11.77148	13.46387
29.11241	11	11.75488	13.47168
29.12043	11	11.73438	13.4707
29.12846	11	11.71387	13.4668
29.13648	12	11.74121	13.50586
29.14451	10	11.7666	13.53711
29.15253	9	11.79004	13.56445
29.16056	10	11.81152	13.58496
29.16858	10	11.82715	13.59473
29.17661	18	11.83984	13.59766
29.18463	11	11.84961	13.59375
29.19266	15	11.8584	13.58398
29.20068	9	11.86816	13.57129
29.20871	15	11.87402	13.55176
29.21673	18	11.87695	13.52637
29.22476	14	11.88086	13.49707
29.23278	16	11.89453	13.47656
29.24081	18	11.90625	13.4502
29.24883	15	11.91699	13.41992
29.25686	11	11.92188	13.38184
29.26488	12	11.92285	13.33984
29.27291	15	11.92285	13.29492
29.28094	12	11.92285	13.24805
29.28896	18	11.92188	13.2002
29.29699	7	11.93848	13.16895
29.30501	8	11.9502	13.13379
29.31304	13	11.96094	13.09766
29.32106	14	11.96484	13.05566
29.32909	15	11.9668	13.01074
29.33711	13	11.96582	12.9668
29.34514	13	11.96484	12.92285
29.35316	11	11.96387	12.87988
29.36119	12	11.97852	12.85547
29.36921	12	11.99121	12.83203
29.37724	17	12.00293	12.80957
29.38526	17	12.01465	12.78809
29.39329	16	12.02051	12.76367
29.40131	12	12.02441	12.73926
29.40934	13	12.02539	12.71582
29.41736	14	12.02441	12.69336
29.42539	13	12.02441	12.67285
29.43341	9	12.02539	12.65625
29.44144	14	12.01855	12.63477
29.44946	13	12.0127	12.61523
29.45749	14	12.0293	12.62207
29.46552	8	12.04492	12.62988
29.47354	14	12.05762	12.6377
29.48157	11	12.06934	12.64453
29.48959	17	12.0752	12.64844
29.49762	14	12.07813	12.65234
29.50564	22	12.08008	12.65625
29.51367	13	12.08105	12.66016
29.52169	13	12.08203	12.66602
29.52972	6	12.07715	12.66699
29.53774	14	12.06934	12.66699
29.54577	20	12.06152	12.66797
29.55379	15	12.08008	12.69629
29.56182	10	12.09668	12.72363
29.56984	6	12.10449	12.74219
29.57787	21	12.10742	12.75781
29.58589	11	12.11035	12.77344
29.59392	7	12.10938	12.78613
29.60194	11	12.10547	12.79688
29.60997	8	12.10059	12.80762
29.61799	15	12.11621	12.83789
29.62602	12	12.13086	12.86816
29.63404	17	12.1377	12.8916
29.64207	15	12.14258	12.91211
29.65009	14	12.14551	12.93262
29.65812	17	12.14551	12.94922
29.66614	20	12.14258	12.96387
29.67417	17	12.14063	12.97949
29.6822	11	12.1416	12.99805
29.69022	15	12.14258	13.01758
29.69825	17	12.14355	13.03613
29.70627	14	12.14453	13.05566
29.7143	14	12.14355	13.07324
29.72232	11	12.13867	13.08691
29.73035	8	12.13281	13.10059
29.73837	14	12.13086	13.11719
29.7464	14	12.12891	13.13379
29.75442	18	12.11426	13.13867
29.76245	12	12.09473	13.1377
29.77047	21	12.0752	13.13672
29.7785	21	12.10352	13.18359
29.78652	16	12.12695	13.22656
29.79455	9	12.13867	13.25781
29.80257	5	12.14648	13.2832
29.8106	14	12.15332	13.30859
29.81862	10	12.15918	13.33301
29.82665	15	12.15918	13.35156
29.83467	8	12.16016	13.37012
29.8427	12	12.1709	13.39844
29.85072	8	12.17969	13.4248
29.85875	19	12.18066	13.44336
29.86677	11	12.17773	13.45605
29.8748	16	12.17383	13.46875
29.88282	16	12.18262	13.49316
29.89085	13	12.19141	13.51758
29.89887	17	12.19336	13.5332
29.9069	19	12.19043	13.54492
29.91493	7	12.18555	13.55371
29.92295	19	12.17969	13.56055
29.93098	11	12.17383	13.56738
29.939	7	12.16602	13.57129
29.94703	13	12.15137	13.56836
29.95505	11	12.1377	13.56543
29.96308	12	12.14551	13.58301
29.9711	16	12.14746	13.59375
29.97913	13	12.13281	13.58789
29.98715	13	12.11035	13.57324
29.99518	15	12.08887	13.55859
30.0032	16	12.12109	13.59863
30.01123	8	12.14648	13.62891
30.01925	9	12.16406	13.65234
30.02728	11	12.17676	13.6709
30.0353	10	12.19043	13.68848
30.04333	19	12.20508	13.70703
30.05135	10	12.2168	13.72168
30.05938	20	12.22754	13.73535
30.0674	20	12.23242	13.74219
30.07543	15	12.2334	13.74512
30.08345	12	12.22949	13.74316
30.09148	13	12.22461	13.73828
30.0995	18	12.21875	13.7334
30.10753	23	12.22168	13.73633
30.11555	8	12.22266	13.7373
30.12358	12	12.21191	13.72559
30.13161	8	12.19434	13.70703
30.13963	14	12.17676	13.68848
30.14766	14	12.20313	13.71191
30.15568	12	12.21973	13.72656
30.16371	21	12.22852	13.73438
30.17173	13	12.23535	13.7373
30.17976	11	12.24121	13.74023
30.18778	13	12.25586	13.75195
30.19581	10	12.2666	13.75879
30.20383	18	12.27734	13.76563
30.21186	15	12.28125	13.76563
30.21988	15	12.28223	13.76172
30.22791	21	12.2793	13.75391
30.23593	17	12.27539	13.74414
30.24396	13	12.27148	13.73438
30.25198	21	12.27637	13.7334
30.26001	19	12.27637	13.72754
30.26803	16	12.27441	13.71875
30.27606	18	12.26953	13.70703
30.28408	14	12.26563	13.69629
30.29211	10	12.27344	13.69629
30.30013	16	12.27734	13.69238
30.30816	15	12.2793	13.68652
30.31618	13	12.28027	13.67871
30.32421	14	12.28027	13.66992
30.33224	22	12.29199	13.67285
30.34026	21	12.30078	13.67188
30.34829	12	12.30078	13.66309
30.35631	13	12.29785	13.65039
30.36434	14	12.2959	13.6377
30.37236	16	12.31055	13.6416
30.38039	12	12.31934	13.64063
30.38841	9	12.32813	13.63867
30.39644	16	12.33594	13.63574
30.40446	11	12.34375	13.63184
30.41249	13	12.34863	13.625
30.42051	19	12.35156	13.61719
30.42854	17	12.35156	13.60547
30.43656	12	12.34668	13.58789
30.44459	19	12.33887	13.56836
30.45261	19	12.32715	13.54492
30.46064	18	12.31543	13.52051
30.46866	7	12.30273	13.49512
30.47669	9	12.29395	13.47363
30.48471	12	12.28027	13.44727
30.49274	12	12.2627	13.41699
30.50076	12	12.24414	13.38574
30.50879	13	12.22461	13.35352
30.51682	17	12.23535	13.35059
30.52484	15	12.25391	13.35742
30.53287	15	12.27344	13.36328
30.54089	16	12.28906	13.36523
30.54892	12	12.30176	13.36523
30.55694	14	12.31055	13.36035
30.56497	22	12.31641	13.35352
30.57299	18	12.32324	13.34668
30.58102	14	12.33691	13.34668
30.58904	16	12.35059	13.34668
30.59707	17	12.36328	13.34668
30.60509	16	12.375	13.34473
30.61312	16	12.38574	13.3418
30.62114	18	12.39258	13.33496
30.62917	25	12.39648	13.32617
30.63719	18	12.39551	13.31152
30.64522	23	12.39063	13.29395
30.65324	17	12.38477	13.27539
30.66127	11	12.37598	13.25293
30.66929	15	12.36426	13.22852
30.67732	12	12.35059	13.20215
30.68534	7	12.33496	13.17383
30.69337	9	12.31836	13.14453
30.7014	12	12.2959	13.1084
30.70942	14	12.27051	13.07031
30.71745	14	12.24219	13.0293
30.72547	12	12.21289	12.9873
30.7335	14	12.18359	12.94629
30.74152	11	12.1875	12.9375
30.74955	16	12.22754	12.96484
30.75757	13	12.26465	12.99023
30.7656	15	12.29297	13.00586
30.77362	12	12.31543	13.0166
30.78165	17	12.33594	13.02539
30.78967	13	12.34668	13.02441
30.7977	14	12.35352	13.01953
30.80572	12	12.35938	13.01465
30.81375	16	12.38867	13.03223
30.82177	15	12.41602	13.04883
30.8298	20	12.43652	13.05859
30.83782	15	12.4541	13.06445
30.84585	15	12.46777	13.06738
30.85387	15	12.47852	13.06738
30.8619	14	12.48438	13.06348
30.86992	20	12.48926	13.05762
30.87795	8	12.49219	13.05078
30.88597	13	12.49121	13.04004
30.894	14	12.4873	13.02734
30.90203	17	12.48145	13.01172
30.91005	13	12.46973	12.99121
30.91808	10	12.45508	12.96875
30.9261	16	12.4375	12.94336
30.93413	9	12.41699	12.91602
30.94215	18	12.39648	12.88867
30.95018	17	12.37109	12.85645
30.9582	12	12.34277	12.82227
30.96623	17	12.31445	12.79004
30.97425	13	12.36035	12.83105
30.98228	14	12.40137	12.87012
30.9903	8	12.42871	12.89551
30.99833	19	12.44824	12.91406
31.00635	11	12.46777	12.93359
31.01438	17	12.47559	12.94336
31.0224	16	12.47754	12.94824
31.03043	15	12.48047	12.95605
31.03845	9	12.50879	12.99121
31.04648	22	12.53613	13.02637
31.0545	9	12.55566	13.05566
31.06253	12	12.57129	13.08398
31.07055	14	12.58301	13.10938
31.07858	14	12.5918	13.13574
31.08661	16	12.59863	13.16113
31.09463	18	12.60352	13.18652
31.10266	14	12.60742	13.21484
31.11068	11	12.60547	13.23828
31.11871	16	12.60059	13.26172
31.12673	18	12.59473	13.28711
31.13476	23	12.58398	13.30957
31.14278	14	12.56934	13.33008
31.15081	19	12.55176	13.35059
31.15883	8	12.5332	13.37109
31.16686	14	12.51367	13.39355
31.17488	19	12.48926	13.41113
31.18291	17	12.45801	13.42383
31.19093	14	12.42578	13.4375
31.19896	18	12.47168	13.52832
31.20698	15	12.5127	13.61523
31.21501	17	12.53711	13.68652
31.22303	13	12.55273	13.74805
31.23106	15	12.56738	13.80762
31.23908	13	12.57324	13.85645
31.24711	13	12.57422	13.89844
31.25513	14	12.5752	13.93945
31.26316	16	12.60059	14.00195
31.27118	19	12.625	14.05957
31.27921	11	12.6416	14.10645
31.28724	14	12.65527	14.14746
31.29526	19	12.66504	14.17871
31.30329	17	12.67188	14.2041
31.31131	16	12.67773	14.22461
31.31934	18	12.68262	14.2373
31.32736	14	12.68652	14.24512
31.33539	11	12.68359	14.24121
31.34341	15	12.67773	14.22852
31.35144	18	12.6709	14.21094
31.35946	16	12.66211	14.18555
31.36749	15	12.64941	14.15234
31.37551	12	12.63281	14.11035
31.38354	12	12.61426	14.0625
31.39156	13	12.59668	14.01074
31.39959	19	12.57227	13.94922
31.40761	16	12.54199	13.87793
31.41564	7	12.51074	13.80371
31.42366	13	12.55176	13.79883
31.43169	12	12.58496	13.78418
31.43971	16	12.60742	13.75586
31.44774	11	12.62109	13.71973
31.45576	15	12.63184	13.67871
31.46379	15	12.63672	13.63184
31.47182	11	12.63867	13.58105
31.47984	8	12.64063	13.53125
31.48787	17	12.66113	13.50195
31.49589	7	12.67969	13.47168
31.50392	9	12.69238	13.43652
31.51194	17	12.70313	13.40137
31.51997	23	12.70996	13.36328
31.52799	20	12.71484	13.32715
31.53602	14	12.71875	13.29102
31.54404	13	12.72168	13.25684
31.55207	14	12.72363	13.22461
31.56009	11	12.71973	13.18848
31.56812	11	12.71191	13.15234
31.57614	15	12.70508	13.11816
31.58417	16	12.69824	13.08691
31.59219	13	12.6875	13.05469
31.60022	14	12.67285	13.02148
31.60824	13	12.65723	12.98926
31.61627	14	12.64063	12.95801
31.62429	19	12.61719	12.92188
31.63232	14	12.58691	12.88281
31.64034	15	12.55762	12.8457
31.64837	14	12.59277	12.875
31.65639	20	12.62012	12.89746
31.66442	18	12.63867	12.91309
31.67245	17	12.65039	12.92383
31.68047	22	12.6582	12.93164
31.6885	17	12.66113	12.93555
31.69652	27	12.66211	12.93945
31.70455	14	12.66309	12.94434
31.71257	24	12.67871	12.96387
31.7206	18	12.69238	12.9834
31.72862	12	12.70117	12.99805
31.73665	14	12.70801	13.01172
31.74467	15	12.71191	13.02246
31.7527	15	12.71387	13.03223
31.76072	15	12.71582	13.04199
31.76875	13	12.7168	13.05078
31.77677	17	12.71582	13.05859
31.7848	18	12.70996	13.06152
31.79282	10	12.70117	13.06152
31.80085	15	12.69336	13.06152
31.80887	19	12.6875	13.06445
31.8169	21	12.67969	13.06445
31.82492	18	12.66699	13.05957
31.83295	22	12.65332	13.05371
31.84097	15	12.6377	13.04492
31.849	14	12.61523	13.02832
31.85703	15	12.58789	13.00781
31.86505	20	12.56055	12.98535
31.87308	21	12.58984	13.01953
31.8811	16	12.61133	13.04492
31.88913	20	12.62598	13.06152
31.89715	21	12.63379	13.07227
31.90518	16	12.63867	13.07813
31.9132	15	12.64063	13.08008
31.92123	10	12.64063	13.0791
31.92925	15	12.63965	13.07715
31.93728	18	12.65039	13.08496
31.9453	16	12.65918	13.09082
31.95333	15	12.66406	13.09082
31.96135	23	12.66699	13.08789
31.96938	11	12.66797	13.08301
31.9774	23	12.66797	13.0752
31.98543	20	12.66699	13.06641
31.99345	19	12.66504	13.05566
32.00148	15	12.66211	13.04297
32.0095	18	12.65527	13.02539
32.01753	23	12.64551	13.00488
32.02555	11	12.63672	12.98438
32.03358	20	12.63184	12.96777
32.0416	19	12.625	12.94727
32.04963	14	12.61426	12.92383
32.05766	18	12.60156	12.89746
32.06568	20	12.58789	12.87012
32.0737	16	12.56738	12.83691
32.08173	11	12.54395	12.7998
32.08976	15	12.52051	12.7627
32.09778	13	12.54199	12.76953
32.1058	23	12.55762	12.77148
32.11383	22	12.56738	12.76855
32.12186	15	12.57227	12.76074
32.12988	25	12.5752	12.75
32.13791	21	12.5752	12.73828
32.14593	28	12.57324	12.72461
32.15396	22	12.57227	12.71191
32.16198	19	12.57715	12.70605
32.17001	18	12.58203	12.7002
32.17803	29	12.58301	12.69141
32.18606	20	12.58301	12.68164
32.19408	11	12.58105	12.6709
32.20211	18	12.57813	12.66016
32.21013	22	12.5752	12.64941
32.21816	29	12.57129	12.6377
32.22618	15	12.56641	12.62598
32.23421	16	12.55859	12.6123
32.24223	25	12.5498	12.59668
32.25026	15	12.54004	12.58203
32.25829	20	12.53613	12.57324
32.26631	15	12.53125	12.56445
32.27433	21	12.52246	12.55176
32.28236	23	12.51074	12.53711
32.29039	16	12.49902	12.52148
32.29841	20	12.48242	12.50195
32.30643	26	12.46289	12.48047
32.31446	24	12.44434	12.45898
32.32249	18	12.45703	12.46973
32.33051	15	12.46582	12.47754
32.33854	18	12.47266	12.48242
32.34656	16	12.47461	12.4834
32.35459	23	12.47559	12.48242
32.36261	23	12.47363	12.47949
32.37064	14	12.47168	12.47656
32.37866	12	12.46875	12.47363
32.38669	17	12.46875	12.47266
32.39471	14	12.46973	12.47266
32.40274	20	12.46777	12.4707
32.41076	14	12.46484	12.4668
32.41879	18	12.46094	12.46289
32.42682	24	12.45605	12.45801
32.43484	15	12.45117	12.45313
32.44286	18	12.44629	12.44727
32.45089	12	12.44043	12.44141
32.45892	12	12.43164	12.43262
32.46694	10	12.42285	12.42383
32.47496	10	12.41309	12.41406
32.48299	11	12.41113	12.41113
32.49102	9	12.40723	12.4082
32.49904	18	12.40137	12.40137
32.50706	12	12.39258	12.39258
32.51509	12	12.38281	12.38281
32.52312	14	12.37012	12.37012
32.53114	13	12.35645	12.35645
32.53917	12	12.3418	12.3418
32.54719	16	12.34668	12.34668
32.55522	14	12.34961	12.34961
32.56324	20	12.35059	12.35156
32.57127	13	12.35059	12.35059
32.57929	15	12.34863	12.34863
32.58732	20	12.3457	12.3457
32.59534	24	12.3418	12.3418
32.60337	13	12.33691	12.33789
32.61139	17	12.33203	12.33203
32.61942	10	12.32715	12.32715
32.62745	13	12.32129	12.32129
32.63547	16	12.31543	12.31543
32.64349	13	12.3125	12.3125
32.65152	15	12.30859	12.30859
32.65955	16	12.30273	12.30273
32.66757	13	12.29688	12.29688
32.67559	14	12.29102	12.29102
32.68362	15	12.28418	12.28418
32.69165	14	12.27734	12.27734
32.69967	15	12.26953	12.26953
32.7077	10	12.26367	12.26367
32.71572	19	12.25781	12.25781
32.72375	12	12.25098	12.25098
32.73177	16	12.24512	12.24512
32.7398	15	12.23828	12.23828
32.74782	10	12.23145	12.23145
32.75585	14	12.22363	12.22363
32.76387	14	12.21582	12.21582
32.7719	19	12.20801	12.20801
32.77992	17	12.2002	12.2002
32.78795	9	12.19141	12.19141
32.79597	14	12.18262	12.18262
32.804	15	12.17383	12.17383
32.81202	19	12.16504	12.16504
32.82005	13	12.15527	12.15527
32.82808	13	12.14551	12.14551
32.8361	10	12.13477	12.13477
32.84412	11	12.12402	12.12402
32.85215	0	0	0
