SampleIdent               : oreas 45d
TimeMeasured              : 16/08/2017 12:45:57
Application               : <Omnian>
ConditionSet              : Omnian
Instrument                : Epsilon1
InstrumentSerial          : 672 (M-672)
TubeAnode                 : Ag 50
Detector                  : SDD5
kV                        : 50.000
mA                        : 0.100
uA                        : 100
Filter                    : Ag 100
Medium                    : Air
PeakingTimeNr             : 3
ZeroReference             : -0.006660745945
GainReference             : 0.008007249795
NoiseReference            : 0.071620985866
FanoReference             : 0.127556249499
ZeroInit                  : -0.006602666806
GainInit                  : 0.008007533848
NoiseInit                 : 0.073252178729
FanoInit                  : 0.128453314304
ZeroFit                   : -0.015001947992
GainFit                   : 0.008029389195
NoiseFit                  : 0.059155553579
FanoFit                   : 0.146488413215
NormFactor                : 1.001468539238
NormRefCounts             : 66115.265625000000
NormCurCounts             : 66018.312500000000
ROI-Fit (chan)            : 250
ROI-Fit (chan)            : 4094
Chi-square                : 1.853711009026
RefPressure               : 974.60
RefTemp                   : 29.300
MeasPressure              : 1004.95
MeasTemp                  : 30.900
Delta_hPa                 : 24.708984375000
HeliumFlow                : 0.00
LiveTime                  : 8.347465000000
TrueTime                  : 12.000493000000
FastChanLiveT             : 10.116043500000
FastChanDeadT             : 1.884449500000
DeadTime                  : 3.653028000000
DeadTimePct               : 30.441
FastChanCounts            : 916011
OutputCounts              : 771948
UnderflowCounts           : 0
OverflowCounts            : -13005
TotalCounts               : 784953
NrOfChannels              : 4096
Energy (keV)	Counts	Background	Fit
-1.500195E-02	0	0	0
-6.972559E-03	0	0	0
1.05683E-03	0	0	0
9.08622E-03	0	0	0
1.711561E-02	0	0	0
0.025145	0	0	0
3.317439E-02	0	0	0
4.120377E-02	0	0	0
4.923316E-02	0	0	0
5.726255E-02	0	0	0
6.529194E-02	0	0	0
7.332134E-02	0	0	0
8.135072E-02	0	0	0
8.938012E-02	0	0	0
0.0974095	0	0	0
0.1054389	0	0	0
0.1134683	0	0	0
0.1214977	0	0	0
0.1295271	0	0	0
0.1375564	0	0	0
0.1455858	0	0	0
0.1536152	0	0	0
0.1616446	0	0	0
0.169674	0	0	0
0.1777034	0	0	0
0.1857328	1	0	0
0.1937622	0	0	0
0.2017916	0	0	0
0.209821	0	0	0
0.2178503	0	0	0
0.2258797	0	0	0
0.2339091	0	0	0
0.2419385	0	0	0
0.2499679	0	0	0
0.2579973	0	0	0
0.2660267	0	0	0
0.2740561	0	0	0
0.2820854	0	0	0
0.2901148	0	0	0
0.2981442	0	0	0
0.3061736	0	0	0
0.314203	0	0	0
0.3222324	0	0	0
0.3302618	0	0	0
0.3382912	0	0	0
0.3463206	0	0	0
0.3543499	0	0	0
0.3623793	0	0	0
0.3704087	0	0	0
0.3784381	0	0	0
0.3864675	0	0	0
0.3944969	0	0	0
0.4025263	0	0	0
0.4105557	0	0	0
0.4185851	0	0	0
0.4266145	0	0	0
0.4346438	0	0	0
0.4426732	0	0	0
0.4507026	0	0	0
0.458732	0	0	0
0.4667614	0	0	0
0.4747908	0	0	0
0.4828202	0	0	0
0.4908496	0	0	0
0.498879	0	0	0
0.5069084	0	0	0
0.5149378	0	0	0
0.5229671	0	0	0
0.5309965	0	0	0
0.5390259	1	0	0
0.5470553	1	0	0
0.5550847	0	0	0
0.563114	0	0	0
0.5711434	0	0	0
0.5791728	0	0	0
0.5872023	0	0	0
0.5952317	1	0	0
0.603261	1	0	0
0.6112904	1	0	0
0.6193198	0	0	0
0.6273492	4	0	0
0.6353786	1	0	0
0.6434079	5	0	0
0.6514373	5	0	0
0.6594667	4	0	0
0.6674961	9	0	0
0.6755255	7	0	0
0.6835549	9	0	0
0.6915843	6	0	0
0.6996137	16	0	0
0.7076431	12	0	0
0.7156725	18	0	0
0.7237018	15	0	0
0.7317312	16	0	0
0.7397606	24	0	0
0.74779	24	0	0
0.7558194	16	0	0
0.7638488	24	0	0
0.7718782	24	0	0
0.7799076	24	0	0
0.787937	23	0	0
0.7959664	24	0	0
0.8039957	22	0	0
0.8120251	35	0	0
0.8200545	22	0	0
0.8280839	38	0	0
0.8361133	38	0	0
0.8441427	34	0	0
0.8521721	35	0	0
0.8602015	26	0	0
0.8682309	27	0	0
0.8762603	32	0	0
0.8842896	37	0	0
0.892319	39	0	0
0.9003484	29	0	0
0.9083778	24	0	0
0.9164072	37	0	0
0.9244366	33	0	0
0.932466	38	0	0
0.9404954	37	0	0
0.9485248	40	0	0
0.9565542	28	0	0
0.9645835	41	0	0
0.9726129	27	0	0
0.9806423	37	0	0
0.9886717	37	0	0
0.9967011	27	0	0
1.00473	19	0	0
1.01276	41	0	0
1.020789	39	0	0
1.028819	40	0	0
1.036848	32	0	0
1.044877	40	0	0
1.052907	26	0	0
1.060936	31	0	0
1.068966	41	0	0
1.076995	30	0	0
1.085024	41	0	0
1.093054	23	0	0
1.101083	29	0	0
1.109113	32	0	0
1.117142	39	0	0
1.125171	34	0	0
1.133201	28	0	0
1.14123	46	0	0
1.149259	43	0	0
1.157289	30	0	0
1.165318	28	0	0
1.173348	42	0	0
1.181377	34	0	0
1.189406	48	0	0
1.197436	39	0	0
1.205465	43	0	0
1.213495	34	0	0
1.221524	43	0	0
1.229553	30	0	0
1.237583	38	0	0
1.245612	36	0	0
1.253641	37	0	0
1.261671	30	0	0
1.2697	44	0	0
1.27773	39	0	0
1.285759	40	0	0
1.293788	47	0	0
1.301818	31	0	0
1.309847	27	0	0
1.317877	33	0	0
1.325906	32	0	0
1.333935	31	0	0
1.341965	34	0	0
1.349994	41	0	0
1.358024	36	0	0
1.366053	45	0	0
1.374082	36	0	0
1.382112	35	0	0
1.390141	36	0	0
1.398171	36	0	0
1.4062	34	0	0
1.414229	39	0	0
1.422259	37	0	0
1.430288	48	0	0
1.438318	41	0	0
1.446347	32	0	0
1.454376	42	0	0
1.462406	32	0	0
1.470435	24	0	0
1.478464	26	0	0
1.486494	40	0	0
1.494523	29	0	0
1.502553	33	0	0
1.510582	44	0	0
1.518611	41	0	0
1.526641	37	0	0
1.53467	40	0	0
1.5427	34	0	0
1.550729	29	0	0
1.558758	44	0	0
1.566788	38	0	0
1.574817	29	0	0
1.582847	49	0	0
1.590876	31	0	0
1.598905	35	0	0
1.606935	34	0	0
1.614964	27	0	0
1.622993	26	0	0
1.631023	35	0	0
1.639052	33	0	0
1.647082	41	0	0
1.655111	33	0	0
1.66314	48	0	0
1.67117	31	0	0
1.679199	43	0	0
1.687229	42	0	0
1.695258	44	0	0
1.703287	45	0	0
1.711317	63	0	0
1.719346	53	0	0
1.727376	37	0	0
1.735405	51	0	0
1.743434	51	0	0
1.751464	57	0	0
1.759493	41	0	0
1.767522	54	0	0
1.775552	35	0	0
1.783581	36	0	0
1.791611	29	0	0
1.79964	28	0	0
1.807669	29	0	0
1.815699	25	0	0
1.823728	27	0	0
1.831758	21	0	0
1.839787	23	0	0
1.847816	22	0	0
1.855846	17	0	0
1.863875	32	0	0
1.871904	26	0	0
1.879934	31	0	0
1.887963	26	0	0
1.895993	30	0	0
1.904022	40	0	0
1.912051	26	0	0
1.920081	17	0	0
1.92811	30	0	0
1.93614	30	0	0
1.944169	28	0	0
1.952198	28	0	0
1.960228	24	0	0
1.968257	27	0	0
1.976287	22	0	0
1.984316	24	0	0
1.992345	25	22.64063	23.8125
2.000375	22	22.2373	23.66992
2.008404	23	22.06055	23.77148
2.016433	21	21.87305	23.85938
2.024463	32	21.68652	23.92383
2.032492	29	21.51172	23.95215
2.040522	19	21.32715	23.90332
2.048551	15	21.14258	23.77539
2.056581	28	20.98242	23.58789
2.06461	18	20.8125	23.31055
2.072639	38	20.62207	22.94531
2.080669	25	20.4209	22.52148
2.088698	22	20.22168	22.07031
2.096727	21	20.07129	21.66211
2.104757	22	19.92188	21.26465
2.112786	23	19.75195	20.86719
2.120816	18	19.57227	20.48828
2.128845	21	19.38867	20.13574
2.136874	16	19.20313	19.80957
2.144904	18	19.01758	19.50879
2.152933	18	18.81934	19.21875
2.160963	21	18.61621	18.94238
2.168992	23	18.39551	18.66504
2.177021	19	18.16602	18.39355
2.185051	20	17.93848	18.13867
2.19308	20	17.98438	18.16992
2.201109	19	18.01074	18.19727
2.209139	13	17.99414	18.19629
2.217168	18	17.95801	18.18848
2.225198	12	17.9209	18.19434
2.233227	25	17.88672	18.21387
2.241256	17	17.85156	18.24316
2.249286	16	17.79883	18.25977
2.257315	23	17.7373	18.26758
2.265345	25	17.6709	18.2666
2.273374	17	17.60156	18.25293
2.281403	18	17.53223	18.22559
2.289433	21	17.50684	18.22266
2.297462	17	17.47168	18.19336
2.305491	18	17.43652	18.14551
2.313521	14	17.39844	18.08105
2.32155	21	17.35742	18.00293
2.32958	21	17.30957	17.91309
2.337609	13	17.25879	17.82031
2.345639	14	17.20703	17.73145
2.353668	17	17.1543	17.64746
2.361697	20	17.09863	17.56738
2.369727	23	17.04395	17.49414
2.377756	14	16.98828	17.42578
2.385785	18	16.93359	17.35742
2.393815	21	16.87891	17.28711
2.401844	19	16.82129	17.21094
2.409873	12	16.76074	17.12793
2.417903	19	16.69922	17.03711
2.425932	21	16.63477	16.94141
2.433962	10	16.57129	16.84375
2.441991	23	16.50195	16.74023
2.450021	14	16.42969	16.63672
2.45805	18	16.35449	16.53223
2.466079	15	16.27832	16.43066
2.474109	17	16.20117	16.33301
2.482138	23	16.14648	16.2627
2.490167	18	16.0918	16.19727
2.498197	22	16.02637	16.12598
2.506226	17	15.95313	16.0498
2.514256	16	15.87402	15.97363
2.522285	14	15.78809	15.89648
2.530314	19	15.69727	15.82227
2.538344	7	15.60742	15.75586
2.546373	15	15.61426	15.79688
2.554403	12	15.6123	15.83984
2.562432	14	15.59375	15.87793
2.570461	15	15.56738	15.91895
2.578491	17	15.54199	15.96875
2.58652	18	15.52637	16.03613
2.59455	14	15.50293	16.09766
2.602579	20	15.47949	16.15527
2.610608	16	15.45605	16.20508
2.618638	21	15.42871	16.23828
2.626667	15	15.39063	16.24805
2.634696	16	15.34863	16.2373
2.642726	15	15.30664	16.21484
2.650755	23	15.28906	16.21094
2.658785	13	15.26563	16.20215
2.666814	11	15.22754	16.18848
2.674844	23	15.18066	16.18652
2.682873	13	15.13477	16.21289
2.690902	19	15.12988	16.3125
2.698932	13	15.11914	16.43945
2.706961	13	15.09766	16.58594
2.71499	17	15.07227	16.74902
2.72302	16	15.04688	16.9209
2.731049	16	15.03418	17.09863
2.739079	11	15.01953	17.25098
2.747108	17	14.99805	17.35742
2.755137	23	14.97363	17.4082
2.763167	15	14.94629	17.39844
2.771196	20	14.91211	17.32129
2.779226	18	14.875	17.18359
2.787255	19	14.83789	16.99707
2.795284	23	14.81738	16.79102
2.803314	13	14.79492	16.56445
2.811343	12	14.75781	16.32324
2.819372	9	14.71387	16.09375
2.827402	14	14.66992	15.9043
2.835431	14	14.66797	15.82031
2.843461	12	14.66406	15.82129
2.85149	14	14.64844	15.92383
2.859519	18	14.62598	16.16602
2.867549	15	14.60352	16.58984
2.875578	18	14.58398	17.23438
2.883608	27	14.56543	18.13281
2.891637	16	14.54102	19.30859
2.899666	22	14.51465	20.78223
2.907696	14	14.48242	22.54883
2.915725	22	14.44727	24.58398
2.923754	30	14.41113	26.83398
2.931784	32	14.39941	29.23145
2.939813	36	14.38574	31.63379
2.947843	30	14.37012	33.90332
2.955872	33	14.34863	35.88574
2.963902	42	14.32422	37.44336
2.971931	43	14.29785	38.45801
2.97996	38	14.27051	38.85156
2.98799	35	14.24414	38.59277
2.996019	40	14.22168	37.70996
3.004048	35	14.2002	36.27539
3.012078	33	14.1748	34.40527
3.020107	43	14.14844	32.25195
3.028136	23	14.12207	29.97949
3.036166	38	14.10254	27.75781
3.044195	28	14.08203	25.72266
3.052225	28	14.05859	23.98828
3.060254	23	14.0332	22.63574
3.068284	29	14.00391	21.70605
3.076313	17	13.97168	21.20801
3.084342	17	13.93945	21.11621
3.092372	30	13.92773	21.39844
3.100401	24	13.91504	21.9541
3.10843	8	13.89355	22.68652
3.11646	19	13.86719	23.49902
3.124489	27	13.83789	24.29785
3.132519	31	13.80176	24.98926
3.140548	33	13.7627	25.50391
3.148577	29	13.72363	25.7959
3.156607	28	13.70801	25.86621
3.164636	20	13.69238	25.69824
3.172666	29	13.67578	25.3291
3.180695	24	13.6582	24.81934
3.188724	30	13.63281	24.24316
3.196754	17	13.60352	23.69922
3.204783	18	13.57129	23.28223
3.212812	22	13.53613	23.08301
3.220842	24	13.5	23.17773
3.228871	25	13.45996	23.61426
3.236901	22	13.41699	24.4209
3.24493	38	13.375	25.58984
3.252959	32	13.37012	27.11328
3.260989	35	13.3623	28.87402
3.269018	31	13.34961	30.76172
3.277048	35	13.32813	32.6416
3.285077	34	13.30273	34.37891
3.293106	30	13.27246	35.83301
3.301136	43	13.24023	36.88281
3.309165	43	13.20801	37.43555
3.317194	37	13.20215	37.46094
3.325224	31	13.19531	36.91895
3.333253	29	13.18066	35.83398
3.341283	40	13.15918	34.2793
3.349312	29	13.13477	32.35938
3.357342	25	13.10547	30.19238
3.365371	28	13.07324	27.90527
3.3734	33	13.04102	25.61914
3.38143	25	13.00879	23.43457
3.389459	24	12.97559	21.42969
3.397488	25	12.94238	19.65918
3.405518	17	12.91016	18.15039
3.413547	27	12.88965	16.92188
3.421577	14	12.86426	15.94531
3.429606	8	12.83203	15.19727
3.437635	9	12.79297	14.64746
3.445665	12	12.75	14.27051
3.453694	17	12.7002	14.03027
3.461724	18	12.64746	13.90332
3.469753	14	12.59473	13.86914
3.477782	14	12.60254	13.96973
3.485812	9	12.60449	14.12012
3.493841	20	12.60059	14.30957
3.501871	11	12.58398	14.52051
3.5099	16	12.55957	14.75195
3.517929	14	12.53125	15.00195
3.525959	24	12.50195	15.26953
3.533988	11	12.47168	15.55371
3.542017	12	12.46582	15.87891
3.550047	16	12.45996	16.22461
3.558076	14	12.44824	16.58789
3.566106	12	12.43164	16.98047
3.574135	12	12.40918	17.41016
3.582165	16	12.38281	17.89453
3.590194	13	12.35547	18.45117
3.598223	24	12.32422	19.09082
3.606253	27	12.28906	19.82617
3.614282	19	12.24902	20.6582
3.622311	24	12.20605	21.58105
3.630341	26	12.16309	22.58008
3.63837	21	12.14551	23.64453
3.646399	18	12.12012	24.69434
3.654429	33	12.08887	25.6709
3.662458	25	12.04785	26.50684
3.670488	28	12.00098	27.13965
3.678517	24	11.94434	27.50977
3.686547	29	11.88281	27.57813
3.694576	29	11.82227	27.3291
3.702605	31	11.84082	26.8418
3.710635	30	11.85059	26.0498
3.718664	26	11.85156	24.99805
3.726693	21	11.83594	23.73828
3.734723	29	11.81152	22.34766
3.742752	21	11.78125	20.89746
3.750782	12	11.74805	19.45801
3.758811	13	11.71484	18.08887
3.76684	15	11.71777	16.86719
3.77487	12	11.7168	15.78516
3.782899	12	11.70801	14.84961
3.790929	15	11.69336	14.06641
3.798958	10	11.67285	13.4248
3.806987	14	11.64844	12.91406
3.815017	16	11.62207	12.51758
3.823046	16	11.58887	12.21191
3.831075	10	11.55371	11.97949
3.839105	10	11.51367	11.80371
3.847134	10	11.4707	11.6709
3.855164	10	11.42773	11.57422
3.863193	13	11.41406	11.53516
3.871222	11	11.3916	11.50879
3.879252	19	11.3584	11.49316
3.887281	13	11.31543	11.48633
3.895311	8	11.26758	11.49316
3.90334	18	11.20508	11.50586
3.911369	16	11.13574	11.53516
3.919399	10	11.06641	11.58691
3.927428	12	11.09668	11.76172
3.935457	13	11.11816	11.95117
3.943487	14	11.12012	12.13867
3.951516	14	11.11035	12.33105
3.959546	15	11.10156	12.53125
3.967575	12	11.09375	12.73242
3.975605	11	11.07813	12.91699
3.983634	15	11.0625	13.08203
3.991663	23	11.05273	13.22363
3.999693	17	11.04395	13.32813
4.007722	21	11.02734	13.38184
4.015751	16	11.00781	13.38574
4.023781	10	10.98242	13.33691
4.03181	17	10.95313	13.24023
4.03984	20	10.92383	13.10645
4.047869	14	10.89551	12.94238
4.055898	15	10.86133	12.75195
4.063928	10	10.81641	12.53906
4.071957	6	10.76465	12.31738
4.079987	16	10.71387	12.10156
4.088016	11	10.70117	11.93457
4.096045	9	10.6748	11.76855
4.104074	12	10.64453	11.61426
4.112104	21	10.60156	11.46582
4.120133	7	10.55273	11.32715
4.128163	12	10.48633	11.18359
4.136192	14	10.41113	11.04199
4.144222	8	10.33594	10.90918
4.152251	8	10.37012	10.89258
4.16028	12	10.39258	10.86719
4.16831	11	10.39063	10.81934
4.176339	11	10.37598	10.76074
4.184369	11	10.3623	10.7041
4.192398	14	10.37012	10.67188
4.200428	8	10.37012	10.63281
4.208457	7	10.36816	10.59277
4.216486	14	10.35742	10.54785
4.224515	17	10.34277	10.50293
4.232545	6	10.32031	10.45215
4.240574	15	10.29395	10.40332
4.248604	14	10.26758	10.3584
4.256633	19	10.25098	10.3291
4.264662	11	10.23145	10.30566
4.272692	17	10.2002	10.28223
4.280721	18	10.16211	10.27051
4.288751	12	10.12207	10.2832
4.29678	10	10.0791	10.33398
4.30481	12	10.0332	10.44824
4.312839	11	9.977539	10.6543
4.320868	11	9.917969	11.00586
4.328897	18	9.857422	11.58105
4.336927	13	9.821289	12.49902
4.344956	17	9.777344	13.85938
4.352986	23	9.710938	15.80859
4.361015	14	9.632813	18.56055
4.369045	25	9.555664	22.36523
4.377074	33	9.583008	27.5957
4.385103	34	9.591797	34.41211
4.393133	37	9.578125	43.09473
4.401162	50	9.551758	53.90527
4.409192	67	9.526367	67.04395
4.417221	94	9.527344	82.62109
4.42525	106	9.519531	100.5498
4.43328	101	9.5	120.5986
4.441309	124	9.462891	142.3438
4.449338	144	9.416016	165.1787
4.457368	204	9.361328	188.3066
4.465397	214	9.301758	210.7959
4.473427	242	9.243164	231.6348
4.481456	258	9.227539	249.8506
4.489485	287	9.208008	264.4688
4.497515	272	9.174805	274.7285
4.505544	294	9.136719	280.1377
4.513574	247	9.092773	280.501
4.521603	284	9.042969	275.9492
4.529633	245	8.990234	266.9375
4.537662	281	8.931641	254.1865
4.545691	212	8.871094	238.6279
4.55372	260	8.811523	221.3027
4.56175	187	8.754883	203.2695
4.569779	164	8.698242	185.4971
4.577809	189	8.634766	168.793
4.585838	173	8.560547	153.7549
4.593867	153	8.486328	140.75
4.601897	131	8.483398	129.9609
4.609926	122	8.461914	121.1943
4.617956	129	8.420898	114.168
4.625985	112	8.369141	108.4951
4.634015	107	8.318359	103.7324
4.642044	108	8.327148	99.48926
4.650073	95	8.31543	95.28711
4.658103	98	8.294922	90.8252
4.666132	108	8.240234	85.87598
4.674161	96	8.167969	80.36816
4.682191	90	8.088867	74.32422
4.69022	72	8.005859	67.84961
4.698249	55	7.922852	61.1123
4.706279	49	7.913086	54.38086
4.714308	60	7.896484	47.7793
4.722338	44	7.875977	41.50098
4.730367	43	7.833984	35.68945
4.738397	38	7.78125	30.47559
4.746426	44	7.722656	25.94531
4.754455	24	7.650391	22.13184
4.762485	32	7.568359	19.04785
4.770514	16	7.480469	16.68652
4.778543	21	7.383789	15.01953
4.786573	17	7.28418	14.02344
4.794602	26	7.18457	13.67773
4.802631	23	7.169922	14.0498
4.810661	25	7.138672	15.03027
4.81869	31	7.103516	16.63086
4.82672	36	7.051758	18.83691
4.834749	31	6.991211	21.65332
4.842779	33	6.918945	25.05859
4.850808	40	6.841797	29.01953
4.858837	40	6.763672	33.47363
4.866867	37	6.786133	38.41797
4.874896	35	6.78125	43.58496
4.882926	53	6.760742	48.81543
4.890955	71	6.702148	53.88379
4.898984	60	6.625	58.59277
4.907013	65	6.538086	62.72949
4.915043	71	6.446289	66.09375
4.923072	70	6.356445	68.51074
4.931102	55	6.34668	69.92773
4.939131	64	6.333984	70.18359
4.947161	55	6.318359	69.26172
4.95519	76	6.272461	67.18848
4.963219	65	6.211914	64.08691
4.971249	53	6.142578	60.12305
4.979278	49	6.057617	55.48535
4.987308	47	5.956055	50.3877
4.995337	49	5.845703	45.05664
5.003366	30	5.727539	39.69922
5.011395	35	5.604492	34.5
5.019425	35	5.483398	29.61328
5.027454	33	5.486328	25.26855
5.035484	17	5.470703	21.39355
5.043513	24	5.432617	18.01563
5.051543	21	5.37793	15.14063
5.059572	20	5.314453	12.75098
5.067601	13	5.235352	10.79883
5.075631	13	5.149414	9.237305
5.08366	18	5.064453	8.016602
5.09169	17	5.09375	7.192383
5.099719	9	5.091797	6.564453
5.107749	16	5.073242	6.101563
5.115778	20	5.013672	5.738281
5.123807	18	4.93457	5.46582
5.131836	15	4.84668	5.271484
5.139866	13	4.753906	5.142578
5.147895	14	4.662109	5.077148
5.155925	17	4.657227	5.15625
5.163954	15	4.651367	5.291992
5.171983	20	4.636719	5.483398
5.180013	17	4.587891	5.711914
5.188042	10	4.523438	6.004883
5.196072	12	4.448242	6.37793
5.204101	18	4.362305	6.845703
5.212131	16	4.255859	7.408203
5.22016	11	4.138672	8.087891
5.228189	15	4.016602	8.90332
5.236218	11	3.892578	9.871094
5.244248	22	3.770508	11.00977
5.252277	26	3.771484	12.4541
5.260307	15	3.75293	14.08301
5.268336	16	3.716797	15.91797
5.276366	25	3.667969	17.98828
5.284395	21	3.612305	20.33008
5.292424	24	3.540039	22.95801
5.300454	36	3.460938	25.90723
5.308483	26	3.381836	29.2002
5.316513	30	3.413086	32.95117
5.324542	49	3.413086	37
5.332571	42	3.396484	41.32031
5.3406	53	3.34082	45.81934
5.34863	43	3.267578	50.41309
5.356659	65	3.185547	54.97852
5.364689	61	3.099609	59.36133
5.372718	63	3.014648	63.38867
5.380748	58	3.017578	66.96387
5.388777	68	3.015625	69.81543
5.396806	66	3.00293	71.78516
5.404836	49	2.957031	72.72559
5.412865	64	2.893555	72.58008
5.420895	68	2.819336	71.33301
5.428924	63	2.740234	69.02344
5.436954	55	2.643555	65.73047
5.444983	61	2.540039	61.59766
5.453012	49	2.433594	56.80371
5.461041	54	2.328125	51.54492
5.469071	42	2.224609	46.02832
5.4771	54	2.220703	40.54883
5.48513	38	2.201172	35.16992
5.493159	35	2.169922	30.0459
5.501188	30	2.129883	25.29785
5.509218	21	2.085938	21.01172
5.517247	18	2.02832	17.22461
5.525277	22	1.963867	13.95801
5.533306	16	1.901367	11.20508
5.541336	23	1.926758	9.020508
5.549365	20	1.927734	7.243164
5.557394	13	1.916016	5.832031
5.565423	16	1.871094	4.707031
5.573453	12	1.810547	3.831055
5.581482	17	1.743164	3.15918
5.589512	12	1.672852	2.651367
5.597541	11	1.603516	2.272461
5.60557	14	1.612305	2.06543
5.6136	9	1.613281	1.920898
5.621629	15	1.605469	1.819336
5.629659	16	1.566406	1.723633
5.637688	12	1.512695	1.640625
5.645718	9	1.450195	1.568359
5.653747	10	1.384766	1.510742
5.661776	9	1.311523	1.462891
5.669806	12	1.235352	1.432617
5.677835	16	1.15918	1.426758
5.685864	4	1.083984	1.457031
5.693894	7	1.011719	1.536133
5.701923	8	1.004883	1.746094
5.709952	15	0.9892578	2.033203
5.717982	8	0.9648438	2.429688
5.726011	12	0.9375	2.972656
5.734041	15	0.9072266	3.707031
5.74207	17	0.8691406	4.673828
5.7501	22	0.8271484	5.930664
5.758129	16	0.7861328	7.537109
5.766158	12	0.8007813	9.601563
5.774188	20	0.8017578	12.10547
5.782217	20	0.7949219	15.09473
5.790246	25	0.7646484	18.5791
5.798276	28	0.7236328	22.57324
5.806305	28	0.6796875	27.06348
5.814334	28	0.6328125	31.99805
5.822364	36	0.5888672	37.29492
5.830393	52	0.5976563	42.88672
5.838423	47	0.5986328	48.56348
5.846452	32	0.5957031	54.1543
5.854482	46	0.5703125	59.4502
5.862511	48	0.5341797	64.2666
5.87054	68	0.4931641	68.41699
5.87857	66	0.4511719	71.73438
5.886599	68	0.4091797	74.0752
5.894629	71	0.3671875	75.3418
5.902658	69	0.3271484	75.48047
5.910687	67	0.2890625	74.49023
5.918716	77	0.2529297	72.41992
5.926746	54	0.2470703	69.39453
5.934775	70	0.2373047	65.5127
5.942805	65	0.2255859	60.94336
5.950834	55	0.2119141	55.86914
5.958864	53	0.1972656	50.47949
5.966893	48	0.1806641	44.9541
5.974922	52	0.1621094	39.46387
5.982952	50	0.1445313	34.15723
5.990981	44	0.1474609	29.16895
5.999011	39	0.1484375	24.56738
6.00704	44	0.1464844	20.40918
6.015069	45	0.1337891	16.7168
6.023099	26	0.1171875	13.50391
6.031128	30	9.960938E-02	10.75879
6.039157	36	8.203125E-02	8.456055
6.047187	34	6.640625E-02	6.555664
6.055216	38	6.738281E-02	5.029297
6.063246	35	6.835938E-02	3.833984
6.071275	39	6.835938E-02	2.895508
6.079304	33	6.054688E-02	2.236328
6.087334	31	4.882813E-02	1.766602
6.095363	39	3.613281E-02	1.516602
6.103393	35	2.539063E-02	1.510742
6.111422	50	1.660156E-02	1.810547
6.119452	49	9.765625E-03	2.533203
6.127481	59	3.90625E-03	3.878906
6.13551	48	9.765625E-04	6.161133
6.143539	57	0	9.864258
6.151569	56	0	15.70508
6.159598	92	0	24.72363
6.167628	111	0	38.40137
6.175657	125	0	58.79199
6.183687	148	0	88.68652
6.191716	174	0	131.7988
6.199745	245	1.953125E-03	192.9502
6.207775	296	3.90625E-03	278.2559
6.215804	408	0.0078125	395.2822
6.223834	586	1.367188E-02	553.1338
6.231863	734	2.050781E-02	762.4502
6.239892	1021	2.539063E-02	1035.259
6.247921	1279	2.832031E-02	1384.663
6.255951	1729	3.222656E-02	1824.304
6.26398	2142	3.417969E-02	2367.596
6.27201	2842	3.222656E-02	3026.74
6.280039	3472	0.03125	3811.539
6.288069	4422	3.417969E-02	4728.064
6.296098	5531	3.613281E-02	5777.278
6.304127	6670	3.320313E-02	6953.762
6.312157	7889	2.832031E-02	8244.667
6.320186	9295	0.0234375	9629.044
6.328216	10734	1.757813E-02	11077.71
6.336245	12266	1.171875E-02	12553.74
6.344275	13948	0.0078125	14013.71
6.352304	15200	5.859375E-03	15409.53
6.360333	16798	3.90625E-03	16690.99
6.368362	17745	1.953125E-03	17808.65
6.376392	18888	9.765625E-04	18717
6.384421	19579	0	19377.51
6.392451	20142	0	19761.32
6.40048	20207	0	19851.37
6.408509	19916	0	19643.63
6.416539	19581	9.765625E-04	19147.4
6.424568	18640	1.953125E-03	18384.64
6.432598	17433	4.882813E-03	17388.34
6.440627	16462	1.074219E-02	16200.16
6.448657	15031	0.015625	14867.55
6.456686	13742	2.050781E-02	13440.62
6.464715	11824	3.222656E-02	11969.06
6.472744	10627	4.394531E-02	10499.37
6.480774	8951	5.566406E-02	9072.574
6.488803	7623	0.0625	7722.6
6.496833	6368	6.542969E-02	6475.375
6.504862	5171	6.640625E-02	5348.568
6.512891	4265	6.640625E-02	4351.964
6.520921	3250	6.445313E-02	3488.288
6.52895	2649	5.859375E-02	2754.379
6.53698	2078	5.175781E-02	2142.523
6.545009	1600	4.589844E-02	1641.821
6.553039	1194	0.0390625	1239.462
6.561068	898	0.03125	921.8447
6.569097	661	2.441406E-02	675.4795
6.577127	509	1.757813E-02	487.6533
6.585156	352	1.171875E-02	346.874
6.593185	267	6.835938E-03	243.1172
6.601215	235	2.929688E-03	167.9063
6.609244	140	9.765625E-04	114.2764
6.617273	145	0	76.65137
6.625303	112	0	50.67578
6.633332	100	0	33.02539
6.641362	87	0	21.21875
6.649391	82	0	13.44141
6.657421	65	0	8.398438
6.66545	65	1.953125E-03	5.176758
6.673479	59	3.90625E-03	3.150391
6.681509	63	6.835938E-03	1.894531
6.689538	59	1.464844E-02	1.133789
6.697567	60	2.539063E-02	0.6796875
6.705597	64	3.320313E-02	0.4121094
6.713626	67	3.808594E-02	0.2636719
6.721655	54	4.003906E-02	0.1630859
6.729685	65	3.613281E-02	0.1269531
6.737714	53	0.03125	0.09375
6.745744	52	2.636719E-02	0.1240234
6.753773	71	0.0390625	0.1992188
6.761803	71	5.078125E-02	0.3164063
6.769832	68	6.152344E-02	0.4980469
6.777861	75	6.640625E-02	0.7783203
6.785891	72	6.835938E-02	1.214844
6.79392	79	6.835938E-02	1.890625
6.80195	84	6.640625E-02	2.924805
6.809979	78	6.542969E-02	4.488281
6.818008	71	6.640625E-02	6.81543
6.826038	101	6.445313E-02	10.2207
6.834067	96	6.152344E-02	15.1377
6.842096	113	0.0625	22.13086
6.850126	120	5.957031E-02	31.91797
6.858155	129	5.664063E-02	45.41113
6.866185	190	7.421875E-02	63.74609
6.874214	176	8.789063E-02	88.2373
6.882243	215	0.1035156	120.4482
6.890273	265	0.1259766	162.1455
6.898302	321	0.1445313	215.2441
6.906332	392	0.1640625	281.7705
6.914361	458	0.1933594	363.752
6.92239	558	0.2197266	463.0664
6.93042	702	0.2392578	581.3105
6.938449	835	0.2509766	719.6172
6.946478	955	0.2587891	878.4688
6.954508	1182	0.2558594	1057.501
6.962537	1340	0.2470703	1255.354
6.970567	1570	0.2382813	1469.552
6.978596	1769	0.2626953	1696.458
6.986625	2155	0.2802734	1931.205
6.994655	2328	0.2978516	2167.915
7.002684	2464	0.3076172	2399.846
7.010714	2755	0.3125	2619.705
7.018743	2860	0.3173828	2820.009
7.026772	3052	0.3183594	2993.481
7.034802	3154	0.3144531	3133.507
7.042831	3322	0.3056641	3234.54
7.05086	3374	0.2929688	3292.476
7.05889	3386	0.28125	3304.921
7.066919	3245	0.2695313	3271.356
7.074949	3145	0.2490234	3193.168
7.082978	3013	0.2285156	3073.576
7.091008	2825	0.2734375	2917.454
7.099037	2674	0.3105469	2730.814
7.107066	2530	0.3515625	2520.639
7.115096	2291	0.3994141	2294.357
7.123125	1998	0.4384766	2059.402
7.131155	1782	0.4804688	1822.863
7.139184	1540	0.5234375	1591.115
7.147213	1306	0.5615234	1369.568
7.155242	1097	0.5908203	1162.522
7.163272	947	0.6103516	973.0986
7.171301	781	0.6259766	803.2568
7.179331	594	0.6289063	653.875
7.18736	448	0.6259766	524.9121
7.19539	400	0.6230469	415.5693
7.203419	327	0.6445313	324.5
7.211448	226	0.6542969	249.917
7.219478	173	0.6640625	189.8652
7.227507	141	0.6757813	142.3164
7.235537	99	0.6777344	105.2734
7.243566	90	0.6796875	76.89453
7.251595	52	0.6845703	55.51758
7.259624	48	0.6806641	39.68066
7.267654	31	0.6679688	28.16016
7.275683	36	0.6523438	19.95215
7.283713	21	0.6367188	14.25586
7.291742	14	0.6035156	10.42188
7.299772	12	0.5576172	7.977539
7.307801	18	0.5136719	6.581055
7.31583	13	0.5888672	6.091797
7.32386	13	0.6523438	6.198242
7.331889	16	0.7197266	6.791992
7.339919	12	0.7871094	7.786133
7.347948	7	0.8417969	9.112305
7.355978	14	0.8984375	10.74316
7.364007	24	0.953125	12.6416
7.372036	21	1.000977	14.77148
7.380065	28	1.036133	17.09082
7.388095	27	1.063477	19.56152
7.396124	22	1.087891	22.13672
7.404154	24	1.101563	24.74121
7.412183	36	1.110352	27.33008
7.420212	31	1.118164	29.81934
7.428242	33	1.126953	32.13477
7.436271	42	1.126953	34.18945
7.444301	28	1.125977	35.91992
7.45233	27	1.136719	37.27441
7.46036	47	1.134766	38.17871
7.468389	37	1.131836	38.60938
7.476418	45	1.139648	38.56152
7.484447	44	1.135742	38.0127
7.492477	32	1.123047	36.99023
7.500506	42	1.104492	35.5332
7.508536	23	1.083984	33.70117
7.516565	24	1.03418	31.53125
7.524594	31	0.9697266	29.11328
7.532624	25	0.9082031	26.54004
7.540653	25	1.008789	24.04688
7.548683	21	1.091797	21.5293
7.556712	17	1.177734	19.07227
7.564742	10	1.25293	16.71484
7.572771	20	1.318359	14.50391
7.5808	12	1.379883	12.47754
7.58883	16	1.433594	10.65234
7.596859	19	1.482422	9.040039
7.604888	6	1.519531	7.633789
7.612918	8	1.549805	6.432617
7.620947	5	1.580078	5.427734
7.628976	6	1.608398	4.600586
7.637006	6	1.623047	3.920898
7.645035	13	1.630859	3.37207
7.653065	8	1.634766	2.936523
7.661094	9	1.636719	2.597656
7.669124	6	1.637695	2.339844
7.677153	6	1.637695	2.143555
7.685182	10	1.625977	1.986328
7.693212	4	1.613281	1.869141
7.701241	5	1.625	1.806641
7.70927	6	1.623047	1.75293
7.7173	9	1.612305	1.708008
7.725329	2	1.592773	1.667969
7.733359	4	1.570313	1.634766
7.741388	6	1.513672	1.576172
7.749417	6	1.44043	1.509766
7.757447	7	1.370117	1.453125
7.765476	3	1.484375	1.588867
7.773506	7	1.579102	1.716797
7.781535	10	1.674805	1.857422
7.789564	6	1.748047	1.992188
7.797594	8	1.80957	2.139648
7.805623	3	1.860352	2.305664
7.813653	6	1.905273	2.503906
7.821682	6	1.951172	2.754883
7.829711	9	1.994141	3.068359
7.837741	9	2.033203	3.462891
7.84577	4	2.067383	3.956055
7.853799	7	2.097656	4.574219
7.861829	9	2.116211	5.336914
7.869858	7	2.12793	6.280273
7.877888	10	2.137695	7.4375
7.885917	15	2.144531	8.844727
7.893947	16	2.151367	10.5332
7.901976	18	2.142578	12.51563
7.910005	19	2.123047	14.82031
7.918035	23	2.103516	17.47266
7.926064	24	2.118164	20.5127
7.934093	18	2.118164	23.88184
7.942123	25	2.107422	27.56348
7.950152	42	2.088867	31.51855
7.958181	43	2.06543	35.69629
7.966211	44	2.006836	39.99219
7.97424	49	1.930664	44.33691
7.98227	50	1.856445	48.64844
7.990299	62	1.973633	53.00977
7.998329	65	2.072266	57.09375
8.006358	62	2.165039	60.80176
8.014387	56	2.231445	64.00781
8.022417	79	2.286133	66.63086
8.030446	73	2.326172	68.5918
8.038475	86	2.361328	69.8418
8.046505	62	2.395508	70.35547
8.054534	72	2.445313	70.14258
8.062564	62	2.492188	69.20508
8.070593	68	2.529297	67.5791
8.078623	72	2.55957	65.33691
8.086652	75	2.580078	62.55566
8.094681	58	2.59375	59.34082
8.102711	61	2.605469	55.79883
8.11074	44	2.613281	52.03711
8.11877	40	2.620117	48.16504
8.126799	42	2.608398	44.2627
8.134828	26	2.586914	40.42871
8.142858	24	2.566406	36.74707
8.150887	35	2.581055	33.31445
8.158916	20	2.581055	30.12598
8.166945	20	2.571289	27.21484
8.174975	16	2.552734	24.59766
8.183004	16	2.530273	22.28223
8.191033	13	2.472656	20.22656
8.199063	15	2.398438	18.43262
8.207092	10	2.325195	16.89258
8.215122	15	2.4375	15.7627
8.223151	13	2.532227	14.80469
8.231181	14	2.616211	13.99609
8.23921	18	2.675781	13.28906
8.247239	10	2.723633	12.66504
8.255269	9	2.756836	12.09766
8.263298	12	2.78418	11.57031
8.271328	11	2.811523	11.07031
8.279357	9	2.860352	10.60547
8.287387	9	2.907227	10.1416
8.295416	11	2.941406	9.664063
8.303445	11	2.969727	9.176758
8.311475	11	2.987305	8.675781
8.319504	10	3.000977	8.170898
8.327534	1	3.010742	7.668945
8.335563	12	3.017578	7.174805
8.343593	8	3.022461	6.696289
8.351622	6	3.010742	6.226563
8.359651	12	2.992188	5.77832
8.367681	3	2.972656	5.365234
8.37571	5	2.984375	5.020508
8.383739	8	2.984375	4.705078
8.391768	3	2.973633	4.421875
8.399798	5	2.956055	4.174805
8.407827	3	2.93457	3.967773
8.415856	1	2.880859	3.772461
8.423886	7	2.811523	3.604492
8.431915	6	2.743164	3.481445
8.439945	6	2.844727	3.571289
8.447974	5	2.929688	3.688477
8.456003	5	3.00293	3.837891
8.464033	8	3.052734	4.011719
8.472062	5	3.092773	4.220703
8.480092	5	3.119141	4.467773
8.488121	8	3.139648	4.758789
8.496151	4	3.160156	5.101563
8.50418	6	3.204102	5.519531
8.512209	9	3.246094	5.986328
8.520239	14	3.276367	6.488281
8.528268	11	3.300781	7.029297
8.536298	12	3.316406	7.597656
8.544327	8	3.327148	8.191406
8.552357	15	3.336914	8.801758
8.560386	7	3.341797	9.414063
8.568415	21	3.344727	10.01855
8.576445	11	3.335938	10.58789
8.584474	10	3.319336	11.11426
8.592504	8	3.303711	11.59082
8.600533	14	3.311523	12.02637
8.608562	8	3.307617	12.37598
8.616591	19	3.296875	12.63086
8.62462	14	3.279297	12.78906
8.63265	10	3.258789	12.84863
8.640679	10	3.211914	12.78711
8.648709	14	3.150391	12.62109
8.656738	8	3.089844	12.37305
8.664768	13	3.175781	12.19824
8.672797	19	3.249023	11.94922
8.680826	9	3.308594	11.64063
8.688856	23	3.348633	11.2832
8.696885	9	3.378906	10.90137
8.704915	14	3.397461	10.50977
8.712944	11	3.411133	10.13184
8.720974	10	3.424805	9.785156
8.729003	7	3.463867	9.507813
8.737032	7	3.499023	9.283203
8.745062	8	3.525391	9.114258
8.753091	4	3.545898	9.010742
8.761121	8	3.558594	8.975586
8.76915	5	3.568359	9.014648
8.777179	7	3.575195	9.130859
8.785209	12	3.580078	9.320313
8.793238	6	3.583008	9.580078
8.801268	4	3.575195	9.895508
8.809297	11	3.5625	10.2627
8.817327	7	3.550781	10.67578
8.825356	12	3.553711	11.1377
8.833385	7	3.546875	11.6084
8.841414	9	3.53418	12.07617
8.849443	19	3.517578	12.52734
8.857473	19	3.5	12.94434
8.865502	15	3.458984	13.29102
8.873532	10	3.407227	13.56348
8.881561	9	3.355469	13.75781
8.88959	17	3.425781	13.98535
8.89762	18	3.486328	14.10449
8.905649	15	3.53125	14.10547
8.913679	21	3.55957	13.98633
8.921708	17	3.581055	13.75684
8.929738	13	3.592773	13.4209
8.937767	18	3.599609	12.99316
8.945796	11	3.606445	12.48926
8.953826	11	3.638672	11.95117
8.961855	15	3.667969	11.36523
8.969885	7	3.689453	10.74219
8.977914	17	3.708008	10.10254
8.985944	8	3.71875	9.460938
8.993973	10	3.726563	8.833008
9.002002	7	3.732422	8.235352
9.010032	11	3.735352	7.677734
9.018061	16	3.738281	7.169922
9.026091	8	3.733398	6.711914
9.03412	12	3.724609	6.313477
9.042149	10	3.71582	5.980469
9.050179	4	3.714844	5.72168
9.058208	3	3.705078	5.520508
9.066237	8	3.691406	5.382813
9.074266	8	3.675781	5.306641
9.082296	8	3.661133	5.291016
9.090325	2	3.62793	5.316406
9.098354	3	3.584961	5.386719
9.106384	3	3.541992	5.506836
9.114413	5	3.598633	5.771484
9.122443	3	3.645508	6.068359
9.130472	10	3.674805	6.381836
9.138502	9	3.694336	6.713867
9.146531	9	3.708984	7.063477
9.15456	9	3.713867	7.416992
9.16259	7	3.714844	7.772461
9.170619	7	3.71582	8.124023
9.178649	6	3.742188	8.489258
9.186678	6	3.765625	8.831055
9.194708	10	3.782227	9.135742
9.202737	10	3.794922	9.399414
9.210766	7	3.803711	9.613281
9.218796	8	3.810547	9.772461
9.226825	7	3.81543	9.875
9.234855	19	3.819336	9.916992
9.242884	14	3.821289	9.896484
9.250914	13	3.817383	9.811523
9.258943	13	3.810547	9.666016
9.266972	9	3.803711	9.466797
9.275002	12	3.800781	9.225586
9.283031	11	3.791016	8.936523
9.29106	10	3.77832	8.612305
9.299089	7	3.763672	8.262695
9.307119	7	3.749023	7.897461
9.315148	7	3.726563	7.518555
9.323177	11	3.695313	7.130859
9.331207	7	3.664063	6.750977
9.339236	7	3.705078	6.457031
9.347266	11	3.737305	6.175781
9.355295	3	3.75293	5.899414
9.363324	6	3.758789	5.640625
9.371354	5	3.765625	5.410156
9.379383	10	3.769531	5.208008
9.387413	4	3.768555	5.029297
9.395442	4	3.767578	4.879883
9.403472	6	3.786133	4.77832
9.411501	7	3.801758	4.700195
9.41953	5	3.810547	4.640625
9.42756	5	3.816406	4.602539
9.435589	7	3.821289	4.584961
9.443619	5	3.825195	4.586914
9.451648	4	3.828125	4.605469
9.459678	6	3.830078	4.639648
9.467707	1	3.831055	4.685547
9.475736	8	3.829102	4.741211
9.483766	5	3.825195	4.803711
9.491795	9	3.822266	4.874023
9.499825	5	3.818359	4.947266
9.507854	4	3.811523	5.018555
9.515883	5	3.802734	5.087891
9.523912	7	3.792969	5.151367
9.531941	6	3.783203	5.208008
9.539971	4	3.771484	5.25293
9.548	9	3.755859	5.282227
9.55603	8	3.740234	5.298828
9.564059	7	3.751953	5.328125
9.572089	6	3.760742	5.337891
9.580118	3	3.762695	5.326172
9.588147	6	3.761719	5.295898
9.596177	8	3.761719	5.25
9.604206	8	3.761719	5.192383
9.612236	3	3.760742	5.120117
9.620265	3	3.758789	5.038086
9.628295	4	3.755859	4.947266
9.636324	1	3.751953	4.849609
9.644353	6	3.748047	4.749023
9.652383	5	3.744141	4.646484
9.660412	8	3.738281	4.543945
9.668442	5	3.731445	4.443359
9.676471	6	3.725586	4.347656
9.6845	6	3.717773	4.255859
9.69253	6	3.710938	4.171875
9.700559	6	3.703125	4.09375
9.708589	4	3.695313	4.021484
9.716618	3	3.685547	3.957031
9.724648	8	3.675781	3.898438
9.732677	3	3.666016	3.84668
9.740705	2	3.654297	3.799805
9.748735	4	3.641602	3.757813
9.756764	7	3.629883	3.720703
9.764794	4	3.619141	3.69043
9.772823	3	3.606445	3.661133
9.780853	7	3.59375	3.635742
9.788882	7	3.581055	3.613281
9.796911	2	3.569336	3.592773
9.804941	2	3.556641	3.574219
9.81297	4	3.542969	3.555664
9.821	4	3.52832	3.538086
9.829029	3	3.513672	3.520508
9.837059	2	3.499023	3.503906
9.845088	4	3.482422	3.485352
9.853117	3	3.461914	3.464844
9.861147	4	3.442383	3.444336
9.869176	4	3.428711	3.429688
9.877206	5	3.414063	3.415039
9.885235	2	3.390625	3.391602
9.893265	5	3.362305	3.362305
9.901294	4	3.333984	3.333984
9.909323	3	3.338867	3.338867
9.917353	7	3.338867	3.339844
9.925382	7	3.325195	3.325195
9.933412	3	3.304688	3.304688
9.941441	5	3.283203	3.283203
9.949471	5	3.283203	3.283203
9.9575	3	3.276367	3.276367
9.965528	5	3.263672	3.264648
9.973558	5	3.249023	3.25
9.981587	6	3.233398	3.235352
9.989617	5	3.231445	3.234375
9.997646	2	3.223633	3.227539
10.00568	3	3.208984	3.213867
10.01371	3	3.189453	3.197266
10.02173	3	3.170898	3.180664
10.02976	3	3.169922	3.182617
10.03779	5	3.163086	3.180664
10.04582	1	3.148438	3.170898
10.05385	5	3.128906	3.15918
10.06188	4	3.109375	3.148438
10.06991	3	3.102539	3.15332
10.07794	5	3.086914	3.150391
10.08597	0	3.064453	3.144531
10.094	4	3.039063	3.138672
10.10203	7	3.013672	3.136719
10.11006	2	2.976563	3.125977
10.11809	3	2.933594	3.114258
10.12612	2	2.891602	3.106445
10.13415	3	2.93457	3.189453
10.14218	3	2.97168	3.269531
10.1502	6	2.996094	3.342773
10.15823	2	3.015625	3.413086
10.16626	4	3.035156	3.487305
10.17429	4	3.055664	3.56543
10.18232	1	3.072266	3.641602
10.19035	2	3.089844	3.71875
10.19838	4	3.110352	3.799805
10.20641	2	3.130859	3.880859
10.21444	5	3.146484	3.955078
10.22247	4	3.160156	4.025391
10.2305	5	3.169922	4.088867
10.23853	12	3.177734	4.147461
10.24656	4	3.18457	4.202148
10.25459	6	3.191406	4.254883
10.26262	3	3.196289	4.304688
10.27065	4	3.195313	4.347656
10.27868	4	3.191406	4.389648
10.2867	5	3.1875	4.4375
10.29473	5	3.202148	4.510742
10.30276	10	3.209961	4.587891
10.31079	7	3.210938	4.674805
10.31882	2	3.208008	4.77832
10.32685	3	3.204102	4.905273
10.33488	7	3.191406	5.053711
10.34291	7	3.174805	5.233398
10.35094	7	3.157227	5.455078
10.35897	4	3.197266	5.780273
10.367	1	3.231445	6.151367
10.37503	4	3.254883	6.570313
10.38306	5	3.274414	7.045898
10.39109	3	3.293945	7.585938
10.39912	4	3.30957	8.189453
10.40715	5	3.322266	8.858398
10.41517	4	3.334961	9.594727
10.4232	3	3.355469	10.40234
10.43123	6	3.375977	11.27051
10.43926	14	3.391602	12.18555
10.44729	10	3.40625	13.14063
10.45532	14	3.416016	14.12207
10.46335	7	3.424805	15.11621
10.47138	6	3.432617	16.10742
10.47941	12	3.4375	17.0752
10.48744	13	3.441406	18
10.49547	28	3.44043	18.85742
10.5035	20	3.4375	19.62891
10.51153	16	3.433594	20.29785
10.51956	15	3.448242	20.8623
10.52759	14	3.456055	21.28418
10.53562	17	3.458984	21.5498
10.54364	14	3.457031	21.65234
10.55167	21	3.454102	21.58984
10.5597	11	3.442383	21.35645
10.56773	9	3.427734	20.96094
10.57576	16	3.413086	20.41504
10.58379	11	3.449219	19.78516
10.59182	16	3.479492	19.0293
10.59985	18	3.504883	18.16797
10.60788	13	3.523438	17.22168
10.61591	11	3.538086	16.21484
10.62394	7	3.550781	15.17285
10.63197	6	3.561523	14.11816
10.64	16	3.572266	13.07227
10.64803	9	3.589844	12.0625
10.65606	7	3.607422	11.09668
10.66409	7	3.623047	10.1875
10.67212	6	3.637695	9.345703
10.68014	10	3.647461	8.577148
10.68817	7	3.654297	7.887695
10.6962	7	3.660156	7.283203
10.70423	5	3.664063	6.762695
10.71226	5	3.666016	6.325195
10.72029	6	3.664063	5.966797
10.72832	3	3.660156	5.685547
10.73635	5	3.657227	5.479492
10.74438	10	3.672852	5.362305
10.75241	7	3.683594	5.305664
10.76044	11	3.688477	5.302734
10.76847	8	3.6875	5.348633
10.7765	7	3.683594	5.441406
10.78453	2	3.673828	5.571289
10.79256	9	3.661133	5.736328
10.80059	8	3.649414	5.93457
10.80861	11	3.678711	6.200195
10.81664	8	3.704102	6.482422
10.82467	6	3.726563	6.776367
10.8327	11	3.742188	7.070313
10.84073	6	3.755859	7.362305
10.84876	13	3.766602	7.645508
10.85679	7	3.776367	7.916016
10.86482	9	3.786133	8.166992
10.87285	7	3.797852	8.395508
10.88088	12	3.810547	8.594727
10.88891	9	3.822266	8.759766
10.89694	11	3.833984	8.886719
10.90497	9	3.841797	8.970703
10.913	11	3.847656	9.012695
10.92103	6	3.853516	9.013672
10.92906	8	3.856445	8.973633
10.93709	13	3.858398	8.895508
10.94511	13	3.857422	8.78125
10.95314	9	3.854492	8.636719
10.96117	7	3.852539	8.466797
10.9692	9	3.865234	8.291992
10.97723	6	3.874023	8.097656
10.98526	8	3.880859	7.890625
10.99329	5	3.881836	7.671875
11.00132	6	3.881836	7.449219
11.00935	6	3.875977	7.222656
11.01738	5	3.869141	6.998047
11.02541	5	3.861328	6.77832
11.03344	4	3.881836	6.59375
11.04147	10	3.899414	6.416016
11.0495	8	3.913086	6.242188
11.05753	7	3.924805	6.076172
11.06556	9	3.935547	5.918945
11.07358	5	3.945313	5.770508
11.08161	4	3.956055	5.630859
11.08964	7	3.964844	5.499023
11.09767	5	3.972656	5.375
11.1057	5	3.978516	5.256836
11.11373	6	3.983398	5.148438
11.12176	10	3.988281	5.047852
11.12979	4	3.991211	4.955078
11.13782	3	3.994141	4.87207
11.14585	4	3.996094	4.798828
11.15388	9	4	4.737305
11.16191	6	4.001953	4.686523
11.16994	7	4.003906	4.646484
11.17797	4	4.005859	4.617188
11.186	4	4.006836	4.600586
11.19403	9	4.007813	4.594727
11.20205	6	4.005859	4.597656
11.21008	8	4.003906	4.611328
11.21811	7	4.015625	4.649414
11.22614	7	4.027344	4.697266
11.23417	8	4.03418	4.74707
11.2422	4	4.037109	4.800781
11.25023	8	4.041016	4.860352
11.25826	7	4.043945	4.922852
11.26629	7	4.045898	4.986328
11.27432	7	4.047852	5.050781
11.28235	10	4.052734	5.115234
11.29038	6	4.056641	5.175781
11.29841	11	4.060547	5.230469
11.30644	4	4.063477	5.27832
11.31447	9	4.063477	5.316406
11.3225	5	4.063477	5.34375
11.33053	2	4.063477	5.362305
11.33855	6	4.068359	5.375977
11.34658	3	4.073242	5.378906
11.35461	7	4.075195	5.370117
11.36264	6	4.074219	5.349609
11.37067	3	4.071289	5.319336
11.3787	8	4.067383	5.280273
11.38673	11	4.061523	5.234375
11.39476	4	4.055664	5.185547
11.40279	5	4.055664	5.139648
11.41082	4	4.054688	5.09375
11.41885	7	4.047852	5.042969
11.42688	6	4.037109	4.991211
11.43491	2	4.027344	4.943359
11.44294	4	4.042969	4.926758
11.45097	0	4.058594	4.916016
11.45899	8	4.067383	4.904297
11.46702	3	4.072266	4.896484
11.47505	6	4.073242	4.890625
11.48308	5	4.073242	4.889648
11.49111	7	4.073242	4.893555
11.49914	6	4.080078	4.90918
11.50717	6	4.086914	4.927734
11.5152	5	4.092773	4.948242
11.52323	5	4.09375	4.964844
11.53126	5	4.09375	4.979492
11.53929	6	4.09082	4.991211
11.54732	7	4.086914	4.998047
11.55535	3	4.082031	5.00293
11.56338	7	4.09082	5.016602
11.57141	5	4.098633	5.026367
11.57944	8	4.102539	5.02832
11.58747	10	4.100586	5.020508
11.5955	6	4.095703	5.006836
11.60352	7	4.087891	4.986328
11.61155	2	4.078125	4.962891
11.61958	4	4.068359	4.938477
11.62761	7	4.067383	4.922852
11.63564	6	4.064453	4.905273
11.64367	3	4.053711	4.882813
11.6517	5	4.039063	4.859375
11.65973	6	4.024414	4.838867
11.66776	3	4.043945	4.857422
11.67579	5	4.0625	4.879883
11.68382	10	4.073242	4.898438
11.69185	2	4.079102	4.918945
11.69988	9	4.081055	4.939453
11.70791	11	4.079102	4.961914
11.71594	3	4.078125	4.988281
11.72396	5	4.087891	5.029297
11.73199	8	4.097656	5.072266
11.74002	9	4.105469	5.114258
11.74805	13	4.106445	5.149414
11.75608	3	4.104492	5.179688
11.76411	8	4.098633	5.204102
11.77214	4	4.09082	5.222656
11.78017	8	4.083984	5.236328
11.7882	12	4.094727	5.260742
11.79623	7	4.103516	5.277344
11.80426	8	4.109375	5.282227
11.81229	15	4.106445	5.270508
11.82032	4	4.099609	5.24707
11.82835	13	4.088867	5.211914
11.83638	8	4.077148	5.166992
11.84441	10	4.064453	5.115234
11.85244	14	4.0625	5.066406
11.86047	11	4.058594	5.010742
11.86849	10	4.044922	4.94043
11.87652	7	4.026367	4.862305
11.88455	9	4.008789	4.782227
11.89258	10	4.032227	4.743164
11.90061	14	4.054688	4.703125
11.90864	10	4.067383	4.654297
11.91667	13	4.076172	4.603516
11.9247	10	4.077148	4.548828
11.93273	14	4.076172	4.496094
11.94076	12	4.075195	4.447266
11.94879	13	4.087891	4.416992
11.95682	11	4.099609	4.392578
11.96485	6	4.109375	4.370117
11.97288	10	4.110352	4.344727
11.98091	12	4.107422	4.321289
11.98893	11	4.099609	4.297852
11.99696	12	4.089844	4.27832
12.00499	8	4.080078	4.263672
12.01302	5	4.09375	4.277344
12.02105	11	4.104492	4.291992
12.02908	7	4.111328	4.308594
12.03711	3	4.108398	4.317383
12.04514	10	4.099609	4.325195
12.05317	0	4.086914	4.333984
12.0612	6	4.073242	4.34375
12.06923	4	4.058594	4.356445
12.07726	5	4.056641	4.384766
12.08529	4	4.051758	4.414063
12.09332	5	4.036133	4.435547
12.10135	6	4.013672	4.455078
12.10938	4	3.992188	4.478516
12.1174	6	4.035156	4.571289
12.12543	4	4.061523	4.650391
12.13346	5	4.087891	4.735352
12.14149	1	4.175781	4.885742
12.14952	1	4.257813	5.036133
12.15755	7	4.333008	5.18457
12.16558	7	4.40332	5.333008
12.17361	8	4.467773	5.480469
12.18164	4	4.52832	5.62793
12.18967	3	4.588867	5.780273
12.1977	3	4.646484	5.931641
12.20573	9	4.702148	6.083984
12.21376	7	4.751953	6.231445
12.22179	8	4.798828	6.375
12.22982	7	4.84668	6.515625
12.23785	6	4.90332	6.663086
12.24588	10	4.954102	6.796875
12.2539	3	5.005859	6.923828
12.26193	11	5.055664	7.041016
12.26996	11	5.102539	7.142578
12.27799	6	5.139648	7.222656
12.28602	7	5.171875	7.285156
12.29405	6	5.204102	7.333984
12.30208	11	5.279297	7.412109
12.31011	4	5.347656	7.470703
12.31814	8	5.402344	7.503906
12.32617	10	5.451172	7.521484
12.3342	11	5.496094	7.52832
12.34223	14	5.527344	7.516602
12.35026	6	5.550781	7.498047
12.35829	7	5.575195	7.484375
12.36632	15	5.665039	7.544922
12.37435	9	5.749023	7.616211
12.38237	11	5.829102	7.703125
12.3904	11	5.897461	7.805664
12.39843	16	5.960938	7.935547
12.40646	14	6.016602	8.099609
12.41449	16	6.070313	8.30957
12.42252	18	6.124023	8.573242
12.43055	20	6.192383	8.913086
12.43858	22	6.260742	9.321289
12.44661	16	6.322266	9.796875
12.45464	13	6.380859	10.35059
12.46267	26	6.436523	10.98535
12.4707	23	6.491211	11.70996
12.47873	19	6.544922	12.5293
12.48676	35	6.599609	13.44824
12.49479	32	6.651367	14.46582
12.50282	37	6.701172	15.58789
12.51085	36	6.75	16.81836
12.51887	44	6.797852	18.16406
12.5269	43	6.847656	19.63184
12.53493	46	6.889648	21.22363
12.54296	56	6.932617	22.95508
12.55099	64	6.989258	24.85645
12.55902	74	7.042969	26.92969
12.56705	53	7.085938	29.19043
12.57508	73	7.12207	31.66992
12.58311	59	7.15918	34.41016
12.59114	83	7.216797	37.4668
12.59917	77	7.257813	40.84668
12.6072	83	7.299805	44.60938
12.61523	76	7.383789	48.84277
12.62326	89	7.46582	53.54785
12.63129	94	7.529297	58.74902
12.63932	106	7.584961	64.48926
12.64734	100	7.640625	70.80371
12.65537	110	7.689453	77.69727
12.6634	142	7.733398	85.16699
12.67143	135	7.776367	93.19629
12.67946	131	7.84668	101.7666
12.68749	144	7.916016	110.7842
12.69552	168	7.977539	120.1533
12.70355	169	8.035156	129.7627
12.71158	154	8.087891	139.4746
12.71961	164	8.136719	149.1377
12.72764	186	8.186523	158.583
12.73567	191	8.234375	167.627
12.7437	175	8.28125	176.083
12.75173	208	8.319336	183.7578
12.75976	221	8.354492	190.4785
12.76779	201	8.388672	196.084
12.77582	209	8.452148	200.46
12.78384	204	8.509766	203.4561
12.79187	208	8.555664	204.9814
12.7999	228	8.59668	204.9922
12.80793	211	8.637695	203.4814
12.81596	198	8.662109	200.458
12.82399	176	8.677734	195.9912
12.83202	163	8.693359	190.1855
12.84005	188	8.789063	183.25
12.84808	162	8.876953	175.2461
12.85611	131	8.949219	166.3398
12.86414	134	9.010742	156.7197
12.87217	133	9.066406	146.585
12.8802	124	9.114258	136.123
12.88823	124	9.157227	125.5254
12.89626	96	9.200195	114.9707
12.90429	106	9.273438	104.6465
12.91231	107	9.341797	94.65918
12.92034	84	9.40332	85.12207
12.92837	77	9.460938	76.13379
12.9364	71	9.513672	67.76367
12.94443	49	9.5625	60.06055
12.95246	52	9.612305	53.05566
12.96049	43	9.661133	46.75391
12.96852	41	9.708984	41.14551
12.97655	58	9.748047	36.2002
12.98458	37	9.783203	31.88574
12.99261	30	9.819336	28.16309
13.00064	41	9.870117	25.00098
13.00867	32	9.914063	22.32227
13.0167	23	9.951172	20.07715
13.02473	25	9.986328	18.2168
13.03276	18	10.02051	16.69531
13.04078	16	10.04297	15.45313
13.04881	24	10.05566	14.45313
13.05684	20	10.06836	13.66895
13.06487	18	10.16309	13.15039
13.0729	14	10.24805	12.7793
13.08093	24	10.31934	12.53125
13.08896	14	10.37891	12.39258
13.09699	17	10.43359	12.3584
13.10502	15	10.48047	12.41895
13.11305	24	10.52344	12.57324
13.12108	21	10.56641	12.82813
13.12911	20	10.63867	13.21387
13.13714	18	10.70508	13.70508
13.14517	21	10.76758	14.30957
13.1532	15	10.82813	15.04199
13.16123	23	10.88379	15.91309
13.16926	23	10.93652	16.93848
13.17728	28	10.98926	18.13672
13.18531	26	11.03809	19.51953
13.19334	25	11.08496	21.10645
13.20137	27	11.12598	22.9082
13.2094	46	11.16309	24.94336
13.21743	41	11.20117	27.22754
13.22546	43	11.24121	29.77441
13.23349	44	11.27539	32.58398
13.24152	45	11.30957	35.66797
13.24955	65	11.34473	39.02734
13.25758	47	11.38086	42.6582
13.26561	65	11.4043	46.54004
13.27364	63	11.42188	50.66406
13.28167	68	11.43848	55.0166
13.2897	65	11.52539	59.63867
13.29773	72	11.60449	64.42285
13.30575	68	11.6709	69.32324
13.31378	81	11.72949	74.30176
13.32181	87	11.78516	79.31055
13.32984	89	11.83496	84.29102
13.33787	80	11.88086	89.18555
13.3459	108	11.92773	93.93457
13.35393	114	11.99609	98.49316
13.36196	108	12.05957	102.7695
13.36999	104	12.12012	106.6992
13.37802	99	12.17871	110.2188
13.38605	117	12.23535	113.2695
13.39408	112	12.29102	115.7969
13.40211	104	12.3418	117.7529
13.41014	98	12.38965	119.0977
13.41817	114	12.43555	119.8047
13.4262	126	12.47949	119.8555
13.43423	106	12.52148	119.2461
13.44225	102	12.5625	117.9814
13.45028	111	12.60059	116.0771
13.45831	99	12.63672	113.5654
13.46634	98	12.67285	110.4883
13.47437	101	12.70898	106.8975
13.4824	79	12.74512	102.8516
13.49043	72	12.77734	98.41406
13.49846	87	12.80859	93.65918
13.50649	76	12.83984	88.66211
13.51452	72	12.90625	83.53613
13.52255	66	12.96973	78.31738
13.53058	69	13.03125	73.0791
13.53861	66	13.0918	67.88965
13.54664	58	13.15137	62.8125
13.55467	42	13.20996	57.90332
13.5627	39	13.26855	53.20898
13.57072	49	13.32715	48.76855
13.57875	36	13.38574	44.6123
13.58678	38	13.44238	40.76074
13.59481	21	13.49902	37.22656
13.60284	35	13.55273	34.01465
13.61087	31	13.60645	31.12598
13.6189	23	13.65918	28.55176
13.62693	21	13.70996	26.2793
13.63496	21	13.75977	24.29297
13.64299	18	13.80859	22.5752
13.65102	17	13.85449	21.09961
13.65905	23	13.89844	19.84766
13.66708	18	13.94043	18.7959
13.67511	12	13.98145	17.92285
13.68314	9	14.02344	17.20703
13.69116	14	14.06641	16.62988
13.69919	16	14.10938	16.1709
13.70722	19	14.15039	15.81055
13.71525	14	14.19141	15.53516
13.72328	19	14.22754	15.32715
13.73131	16	14.26172	15.17578
13.73934	14	14.2959	15.07422
13.74737	16	14.35938	15.04199
13.7554	16	14.43164	15.05176
13.76343	21	14.50391	15.08887
13.77146	13	14.57031	15.1416
13.77949	17	14.63379	15.20898
13.78752	9	14.69531	15.29102
13.79555	8	14.75684	15.38477
13.80358	20	14.81836	15.49023
13.81161	9	14.87598	15.60449
13.81964	11	14.93262	15.72754
13.82767	20	14.98828	15.86328
13.83569	19	15.0459	16.01367
13.84372	24	15.10352	16.17871
13.85175	19	15.16016	16.36133
13.85978	18	15.22266	16.57324
13.86781	19	15.28613	16.81055
13.87584	15	15.34277	17.07422
13.88387	21	15.39746	17.37207
13.8919	19	15.44922	17.70996
13.89993	7	15.50098	18.09668
13.90796	19	15.55176	18.54102
13.91599	25	15.6084	19.05371
13.92402	18	15.66016	19.63379
13.93205	21	15.71191	20.29297
13.94008	14	15.76758	21.04102
13.94811	36	15.81934	21.87695
13.95613	27	15.87207	22.80859
13.96416	20	15.9375	23.85254
13.97219	25	16.00098	24.99707
13.98022	26	16.06445	26.24121
13.98825	27	16.12598	27.58398
13.99628	27	16.18652	29.0166
14.00431	32	16.24512	30.53516
14.01234	27	16.30469	32.12793
14.02037	36	16.36719	33.78613
14.0284	25	16.42969	35.48926
14.03643	43	16.48438	37.21191
14.04446	35	16.53613	38.93555
14.05249	43	16.58496	40.64063
14.06052	51	16.63281	42.30273
14.06855	35	16.68164	43.89746
14.07658	45	16.75098	45.41992
14.08461	45	16.81738	46.82324
14.09264	44	16.87891	48.0791
14.10066	51	16.93457	49.16602
14.10869	56	16.98828	50.06738
14.11672	44	17.03809	50.76563
14.12475	54	17.08691	51.24902
14.13278	59	17.13574	51.51074
14.14081	46	17.18652	51.54883
14.14884	48	17.23438	51.35742
14.15687	57	17.27441	50.9375
14.1649	69	17.31152	50.30176
14.17293	48	17.34863	49.46582
14.18096	47	17.42969	48.49121
14.18899	44	17.50781	47.34961
14.19702	45	17.58008	46.0625
14.20505	35	17.64941	44.65625
14.21308	58	17.7168	43.15625
14.2211	33	17.78125	41.58887
14.22913	43	17.84473	39.98047
14.23716	40	17.90527	38.35645
14.24519	45	17.96387	36.73926
14.25322	50	18.02246	35.15332
14.26125	32	18.08105	33.61621
14.26928	30	18.13965	32.14648
14.27731	34	18.19434	30.75293
14.28534	28	18.24707	29.44727
14.29337	28	18.29883	28.24121
14.3014	21	18.35254	27.13965
14.30943	22	18.40332	26.14258
14.31746	25	18.4502	25.24707
14.32549	24	18.49414	24.45313
14.33352	24	18.53809	23.75879
14.34155	22	18.59668	23.17383
14.34958	18	18.65332	22.6748
14.3576	12	18.70898	22.25586
14.36563	18	18.75879	21.9043
14.37366	22	18.80469	21.61328
14.38169	19	18.84668	21.375
14.38972	18	18.88672	21.18359
14.39775	19	18.92773	21.0332
14.40578	23	19.0332	20.98145
14.41381	19	19.13867	20.95801
14.42184	20	19.23242	20.94336
14.42987	18	19.32031	20.94043
14.4379	27	19.40137	20.94434
14.44593	20	19.48047	20.95313
14.45396	21	19.55859	20.96875
14.46199	21	19.64551	20.99609
14.47002	21	19.73242	21.02539
14.47805	18	19.81934	21.05762
14.48608	18	19.89648	21.08105
14.4941	32	19.96875	21.10059
14.50213	20	20.03906	21.11914
14.51016	30	20.10742	21.13867
14.51819	23	20.17578	21.16309
14.52622	23	20.24805	21.19434
14.53425	29	20.31738	21.22852
14.54228	22	20.37793	21.2627
14.55031	20	20.43359	21.2998
14.55834	20	20.48926	21.34863
14.56637	21	20.54883	21.41309
14.5744	31	20.60938	21.49023
14.58243	16	20.66309	21.57715
14.59046	15	20.71387	21.67676
14.59849	17	20.75488	21.78418
14.60652	17	20.79199	21.90527
14.61454	27	20.82813	22.04492
14.62257	18	20.91602	22.25684
14.6306	25	21.02832	22.51367
14.63863	26	21.14063	22.79199
14.64666	19	21.25293	23.09277
14.65469	23	21.36621	23.41699
14.66272	25	21.48047	23.7666
14.67075	28	21.58984	24.13477
14.67878	25	21.69727	24.52637
14.68681	25	21.80176	24.93945
14.69484	19	21.90527	25.37793
14.70287	23	22.00293	25.83887
14.7109	23	22.09766	26.32617
14.71893	28	22.19141	26.8418
14.72696	38	22.28418	27.38867
14.73499	25	22.37793	27.96875
14.74302	34	22.46777	28.58008
14.75105	26	22.55371	29.22461
14.75907	27	22.64063	29.90723
14.7671	26	22.73242	30.63477
14.77513	37	22.82227	31.39844
14.78316	26	22.90527	32.19629
14.79119	24	22.98535	33.03027
14.79922	29	23.06543	33.90137
14.80725	38	23.16211	34.82422
14.81528	30	23.25293	35.77148
14.82331	20	23.33594	36.7373
14.83134	39	23.41504	37.7168
14.83937	34	23.49414	38.70801
14.8474	38	23.60254	39.72949
14.85543	49	23.70605	40.73828
14.86346	29	23.80176	41.7168
14.87149	44	23.89355	42.6582
14.87951	46	23.98535	43.55371
14.88754	41	24.08496	44.39746
14.89557	50	24.18066	45.16211
14.9036	50	24.27246	45.83789
14.91163	49	24.36035	46.41211
14.91966	61	24.44629	46.87598
14.92769	35	24.52734	47.21875
14.93572	60	24.60742	47.43652
14.94375	47	24.68652	47.52539
14.95178	38	24.75879	47.47656
14.95981	41	24.82617	47.29395
14.96784	55	24.89063	46.9834
14.97587	52	24.95508	46.55078
14.9839	36	25.01855	46.00684
14.99193	34	25.12109	45.40039
14.99996	46	25.22168	44.70215
15.00799	48	25.31738	43.92383
15.01602	51	25.41211	43.08203
15.02404	45	25.50586	42.19531
15.03207	51	25.60449	41.28223
15.0401	31	25.7002	40.35156
15.04813	44	25.79102	39.41602
15.05616	52	25.87988	38.49023
15.06419	31	25.96387	37.58594
15.07222	38	26.04688	36.71582
15.08025	37	26.12793	35.88867
15.08828	44	26.20605	35.11133
15.09631	36	26.28418	34.38867
15.10434	33	26.36035	33.72656
15.11237	36	26.4375	33.125
15.1204	36	26.51367	32.58594
15.12843	27	26.58984	32.10742
15.13646	41	26.66602	31.68652
15.14448	30	26.75879	31.33789
15.15251	36	26.85254	31.04004
15.16054	28	26.94238	30.78418
15.16857	26	27.0293	30.56543
15.1766	29	27.11621	30.38379
15.18463	24	27.20996	30.23926
15.19266	38	27.30078	30.11719
15.20069	23	27.38965	30.0166
15.20872	25	27.47754	29.93262
15.21675	33	27.56348	29.86328
15.22478	26	27.65039	29.80469
15.23281	29	27.73535	29.75391
15.24084	29	27.82031	29.71094
15.24887	32	27.90527	29.67383
15.2569	38	27.98828	29.6416
15.26493	20	28.06348	29.60547
15.27295	27	28.13379	29.56934
15.28098	33	28.20117	29.53516
15.28901	35	28.26563	29.50488
15.29704	30	28.33008	29.48145
15.30507	28	28.3877	29.45996
15.3131	34	28.44141	29.44336
15.32113	28	28.49414	29.43848
15.32916	24	28.53906	29.43945
15.33719	26	28.5752	29.4502
15.34522	31	28.59863	29.46973
15.35325	28	28.61523	29.50879
15.36128	35	28.63281	29.58105
15.36931	24	28.82715	29.87012
15.37734	43	29.01367	30.2002
15.38537	30	29.18848	30.5791
15.3934	31	29.34277	31.00977
15.40143	37	29.48535	31.5166
15.40945	28	29.61914	32.12207
15.41748	22	29.74902	32.85156
15.42551	28	29.87891	33.73438
15.43354	25	30.0332	34.82422
15.44157	41	30.18457	36.12598
15.4496	44	30.3291	37.6709
15.45763	43	30.46875	39.50488
15.46566	50	30.59766	41.66406
15.47369	49	30.7207	44.20313
15.48172	49	30.84082	47.17773
15.48975	52	30.95508	50.63867
15.49778	48	31.06641	54.64551
15.50581	59	31.16992	59.25195
15.51384	53	31.27051	64.51953
15.52187	80	31.37012	70.50781
15.5299	76	31.47852	77.27832
15.53792	99	31.58398	84.86719
15.54595	102	31.67578	93.30566
15.55398	84	31.76074	102.6328
15.56201	97	31.84473	112.875
15.57004	97	31.91406	124.0283
15.57807	120	31.97656	136.0928
15.5861	146	32.03809	149.0527
15.59413	155	32.22656	162.9951
15.60216	141	32.40527	177.7207
15.61019	198	32.57324	193.1514
15.61822	205	32.72461	209.1787
15.62625	225	32.86719	225.6885
15.63428	241	33.00293	242.5439
15.64231	229	33.13574	259.5869
15.65034	265	33.26855	276.6455
15.65837	257	33.41895	293.5469
15.6664	293	33.56836	310.0723
15.67442	320	33.70996	326.0059
15.68245	307	33.84766	341.1396
15.69048	357	33.97754	355.2588
15.69851	367	34.10254	368.1621
15.70654	369	34.22656	379.6582
15.71457	403	34.3457	389.5645
15.7226	424	34.46289	397.7227
15.73063	422	34.57129	403.9902
15.73866	398	34.67676	408.2656
15.74669	410	34.78125	410.4736
15.75472	374	34.89941	410.584
15.76275	408	35.01563	408.5723
15.77078	431	35.11914	404.4541
15.77881	398	35.21582	398.2959
15.78684	402	35.30957	390.1963
15.79487	433	35.39355	380.2744
15.80289	340	35.4707	368.6895
15.81092	373	35.54883	355.625
15.81895	360	35.72363	341.3789
15.82698	345	35.88965	326.0566
15.83501	312	36.04688	309.8838
15.84304	339	36.19043	293.0811
15.85107	298	36.32715	275.8838
15.8591	262	36.45898	258.5107
15.86713	272	36.58887	241.1768
15.87516	234	36.71875	224.0762
15.88319	239	36.86719	207.4043
15.89122	200	37.01172	191.2949
15.89925	167	37.1543	175.8809
15.90728	150	37.29102	161.2676
15.91531	160	37.42285	147.5381
15.92334	114	37.55078	134.7568
15.93137	110	37.67578	122.9609
15.93939	120	37.7998	112.1689
15.94742	117	37.92285	102.3789
15.95545	91	38.04004	93.56641
15.96348	88	38.15332	85.70117
15.97151	77	38.26758	78.74316
15.97954	83	38.39063	72.64551
15.98757	77	38.5127	67.33789
15.9956	75	38.625	62.74902
16.00363	65	38.7334	58.81641
16.01166	72	38.83984	55.47559
16.01969	74	38.93945	52.65723
16.02772	45	39.03516	50.2998
16.03575	47	39.13086	48.34961
16.04378	66	39.27148	46.79492
16.05181	38	39.4082	45.53809
16.05984	37	39.5459	44.53516
16.06787	47	39.67676	43.74121
16.07589	44	39.80469	43.12207
16.08392	41	39.93066	42.64746
16.09195	46	40.05078	42.28711
16.09998	35	40.16797	42.02148
16.10801	34	40.2793	41.82715
16.11604	44	40.38672	41.69238
16.12407	51	40.49512	41.60645
16.1321	45	40.60547	41.56152
16.14013	49	40.70801	41.53711
16.14816	51	40.81055	41.53613
16.15619	46	40.91797	41.55859
16.16422	53	41.02344	41.5918
16.17225	45	41.11328	41.61816
16.18028	42	41.19336	41.64551
16.1883	42	41.27441	41.67871
16.19633	46	41.43262	41.79297
16.20436	40	41.58203	41.9043
16.21239	51	41.70898	41.99609
16.22042	38	41.8252	42.08008
16.22845	39	41.94141	42.16699
16.23648	42	42.07129	42.26953
16.24451	52	42.19531	42.36914
16.25254	53	42.31934	42.4707
16.26057	46	42.44629	42.57715
16.2686	36	42.57324	42.68652
16.27663	45	42.69434	42.79004
16.28466	54	42.81152	42.89453
16.29269	61	42.92871	42.99805
16.30072	45	43.04492	43.10352
16.30875	48	43.16016	43.20898
16.31678	50	43.26563	43.30664
16.3248	50	43.36719	43.40137
16.33283	50	43.46582	43.49414
16.34086	43	43.56348	43.58691
16.34889	41	43.66211	43.68164
16.35692	70	43.75488	43.77148
16.36495	46	43.84277	43.85645
16.37298	46	43.93164	43.94336
16.38101	40	44.01855	44.03027
16.38904	45	44.10059	44.1123
16.39707	45	44.16992	44.18164
16.4051	57	44.23242	44.24414
16.41313	49	44.29395	44.30859
16.42116	68	44.4668	44.48438
16.42919	53	44.62695	44.64746
16.43722	54	44.77539	44.80078
16.44525	53	44.91016	44.94141
16.45328	67	45.03809	45.07715
16.46131	50	45.15918	45.20898
16.46933	59	45.27832	45.33984
16.47736	67	45.39746	45.47266
16.48539	45	45.5332	45.62598
16.49342	61	45.66699	45.78027
16.50145	48	45.7959	45.93262
16.50948	64	45.9209	46.08496
16.51751	52	46.04102	46.23828
16.52554	68	46.15527	46.38965
16.53357	71	46.2666	46.54395
16.5416	63	46.37109	46.69629
16.54963	56	46.47168	46.85156
16.55766	73	46.57129	47.01074
16.56569	64	46.66895	47.17578
16.57372	60	46.76563	47.3457
16.58175	62	46.85547	47.51563
16.58978	61	46.94238	47.68848
16.59781	61	47.03027	47.86816
16.60583	65	47.10547	48.04004
16.61386	73	47.1748	48.21094
16.62189	86	47.2334	48.375
16.62992	66	47.28516	48.53516
16.63795	51	47.33789	48.69824
16.64598	61	47.52344	48.99316
16.65401	60	47.69336	49.27246
16.66204	60	47.85645	49.54102
16.67007	62	47.99316	49.78027
16.6781	68	48.11816	50.00098
16.68613	73	48.23633	50.20898
16.69416	61	48.35156	50.4043
16.70219	70	48.4668	50.58984
16.71022	66	48.61816	50.80078
16.71824	58	48.76563	50.99512
16.72627	68	48.9082	51.17188
16.7343	57	49.03809	51.32324
16.74233	56	49.16211	51.4541
16.75036	70	49.2793	51.56543
16.75839	71	49.39355	51.66113
16.76642	53	49.50195	51.7373
16.77445	54	49.6084	51.7998
16.78248	60	49.71191	51.84961
16.79051	52	49.80957	51.88379
16.79854	79	49.9043	51.90625
16.80657	61	49.99414	51.91797
16.8146	37	50.08203	51.92285
16.82263	45	50.16895	51.92383
16.83066	71	50.23828	51.9043
16.83869	63	50.29883	51.87598
16.84672	53	50.34961	51.83887
16.85474	45	50.39453	51.79883
16.86277	56	50.44043	51.76172
16.8708	44	50.63184	51.875
16.87883	49	50.81152	51.98047
16.88686	54	50.98438	52.08496
16.89489	60	51.12695	52.16406
16.90292	66	51.25488	52.23438
16.91095	66	51.37402	52.30176
16.91898	64	51.49023	52.37109
16.92701	56	51.60645	52.44531
16.93504	54	51.77148	52.57422
16.94307	48	51.93359	52.70215
16.9511	55	52.08398	52.82324
16.95913	48	52.2207	52.93359
16.96716	66	52.35156	53.03906
16.97519	54	52.46973	53.13477
16.98322	65	52.58203	53.22559
16.99125	51	52.69434	53.31641
16.99927	53	52.80957	53.41211
17.0073	63	52.9248	53.50781
17.01533	68	53.02246	53.58496
17.02336	44	53.11133	53.65332
17.03139	52	53.2002	53.72168
17.03942	50	53.29883	53.80078
17.04745	55	53.39746	53.87891
17.05548	45	53.46484	53.92578
17.06351	57	53.5166	53.95801
17.07154	51	53.56055	53.98438
17.07957	68	53.60059	54.00684
17.0876	70	53.64063	54.03223
17.09563	46	53.85547	54.23438
17.10366	59	54.08398	54.4541
17.11168	53	54.31055	54.67676
17.11971	49	54.50098	54.86621
17.12774	49	54.67188	55.04297
17.13577	52	54.83398	55.2168
17.1438	59	54.99121	55.39355
17.15183	54	55.14941	55.57813
17.15986	57	55.3623	55.82715
17.16789	59	55.56543	56.07617
17.17592	65	55.74805	56.31445
17.18395	66	55.91895	56.55273
17.19198	51	56.09082	56.80371
17.20001	77	56.25488	57.06055
17.20804	60	56.41309	57.3252
17.21607	51	56.57227	57.60547
17.2241	62	56.72461	57.89258
17.23213	64	56.87207	58.19141
17.24016	51	57.00879	58.49414
17.24818	47	57.13965	58.80762
17.25621	63	57.26953	59.1377
17.26424	59	57.43066	59.51465
17.27227	57	57.5918	59.90723
17.2803	72	57.73242	60.2959
17.28833	63	57.8623	60.68945
17.29636	63	57.97656	61.08398
17.30439	68	58.08398	61.4873
17.31242	76	58.19043	61.90527
17.32045	54	58.40625	62.44922
17.32848	62	58.61816	63.00391
17.33651	71	58.82715	63.57324
17.34454	60	59.01855	64.1416
17.35257	72	59.2002	64.7207
17.3606	64	59.37305	65.31152
17.36863	78	59.54199	65.92285
17.37666	56	59.70898	66.55762
17.38468	65	59.87012	67.21875
17.39271	73	60.02832	67.91406
17.40074	69	60.16699	68.63086
17.40877	73	60.29492	69.38574
17.4168	64	60.42285	70.19922
17.42483	74	60.62109	71.14648
17.43286	90	60.81445	72.16406
17.44089	65	60.99805	73.25586
17.44892	59	61.16992	74.42969
17.45695	60	61.33496	75.7002
17.46498	71	61.49414	77.07813
17.47301	89	61.64941	78.5752
17.48104	83	61.80371	80.19922
17.48907	91	61.95703	81.95703
17.4971	87	62.11035	83.85449
17.50513	73	62.26367	85.89063
17.51315	85	62.41699	88.06641
17.52118	85	62.5752	90.37988
17.52921	73	62.72754	92.81055
17.53724	98	62.87988	95.35352
17.54527	115	63.04297	98.00098
17.5533	113	63.20313	100.7178
17.56133	119	63.35352	103.4727
17.56936	114	63.49902	106.2422
17.57739	90	63.64453	108.999
17.58542	107	63.81641	111.7334
17.59345	115	63.98828	114.3838
17.60148	125	64.15039	116.9014
17.60951	117	64.30469	119.251
17.61754	128	64.45605	121.4004
17.62557	124	64.60059	123.3105
17.6336	114	64.74219	124.9512
17.64162	150	64.88379	126.2988
17.64965	112	65.03613	127.3389
17.65768	123	65.1875	128.043
17.66571	144	65.33984	128.3984
17.67374	146	65.49219	128.4004
17.68177	121	65.64355	128.0469
17.6898	128	65.79004	127.3428
17.69783	136	65.93066	126.3027
17.70586	133	66.07031	124.9492
17.71389	127	66.20898	123.3105
17.72192	134	66.33887	121.4082
17.72995	127	66.46191	119.2803
17.73798	132	66.58496	116.9707
17.74601	101	66.75977	114.5713
17.75404	120	66.92676	112.0635
17.76207	100	67.08398	109.4863
17.7701	113	67.23242	106.8809
17.77812	102	67.37695	104.2891
17.78615	113	67.51563	101.7441
17.79418	86	67.65234	99.28027
17.80221	102	67.78809	96.92871
17.81024	105	67.93164	94.71875
17.81827	104	68.07227	92.65918
17.8263	86	68.21094	90.76465
17.83433	87	68.34961	89.0459
17.84236	81	68.4873	87.50781
17.85039	92	68.625	86.15039
17.85842	96	68.75098	84.95898
17.86645	87	68.86719	83.92871
17.87448	78	68.9834	83.06055
17.88251	100	69.16113	82.40234
17.89054	83	69.33301	81.875
17.89857	85	69.49121	81.45313
17.9066	81	69.6416	81.12793
17.91462	80	69.78711	80.88672
17.92265	72	69.92578	80.70801
17.93068	88	70.05957	80.58105
17.93871	93	70.19336	80.49512
17.94674	76	70.35352	80.46191
17.95477	74	70.51172	80.44141
17.9628	89	70.65723	80.41211
17.97083	80	70.79688	80.37012
17.97886	88	70.93652	80.31543
17.98689	91	71.0918	80.25684
17.99492	89	71.24512	80.1748
18.00295	72	71.38672	80.05371
18.01098	85	71.52051	79.89844
18.01901	87	71.65039	79.71289
18.02703	100	71.77832	79.50098
18.03506	85	71.90625	79.2666
18.04309	73	72.0293	79.00684
18.05112	73	72.14355	78.72363
18.05915	79	72.25781	78.42871
18.06718	80	72.39844	78.15332
18.07521	100	72.53613	77.87305
18.08324	79	72.64648	77.56738
18.09127	76	72.74219	77.25293
18.0993	78	72.83789	76.94922
18.10733	72	73.03125	76.75684
18.11536	76	73.21582	76.57129
18.12339	84	73.37012	76.37402
18.13142	68	73.50781	76.18262
18.13945	70	73.64648	76.01367
18.14748	79	73.79688	75.87891
18.15551	67	73.93652	75.75684
18.16354	82	74.07617	75.65918
18.17156	79	74.24512	75.6123
18.17959	69	74.40137	75.57617
18.18762	83	74.55273	75.55566
18.19565	78	74.70117	75.55176
18.20368	82	74.84473	75.56348
18.21171	85	74.9873	75.58984
18.21974	64	75.12305	75.625
18.22777	52	75.25586	75.67188
18.2358	75	75.38867	75.73145
18.24383	82	75.52051	75.80078
18.25186	97	75.64746	75.87598
18.25989	100	75.77441	75.95996
18.26792	92	75.91016	76.05859
18.27595	82	76.03613	76.15527
18.28398	72	76.16211	76.25684
18.29201	84	76.29688	76.37109
18.30004	78	76.43164	76.49023
18.30806	72	76.54395	76.58984
18.31609	69	76.64648	76.68164
18.32412	85	76.74805	76.77637
18.33215	77	76.9375	76.95898
18.34018	84	77.11426	77.13086
18.34821	74	77.26367	77.27637
18.35624	86	77.40039	77.41016
18.36427	69	77.53711	77.54395
18.3723	77	77.69238	77.69824
18.38033	85	77.84766	77.85254
18.38836	97	78.00391	78.00684
18.39639	83	78.16016	78.16211
18.40442	76	78.30859	78.31055
18.41245	83	78.45215	78.4541
18.42048	89	78.58789	78.58984
18.4285	75	78.71973	78.7207
18.43653	85	78.85059	78.85156
18.44456	94	78.96387	78.96484
18.45259	116	79.06934	79.07031
18.46062	100	79.1748	79.17578
18.46865	87	79.33594	79.33691
18.47668	76	79.49121	79.49219
18.48471	100	79.64258	79.64355
18.49274	92	79.78613	79.78809
18.50077	69	79.92676	79.92773
18.5088	83	80.06445	80.06543
18.51683	85	80.19629	80.19824
18.52486	97	80.32617	80.32813
18.53289	82	80.45508	80.45703
18.54092	73	80.58105	80.58301
18.54895	85	80.70508	80.70703
18.55697	79	80.83008	80.83203
18.565	102	80.99902	81.00195
18.57303	68	81.16895	81.1709
18.58106	93	81.31055	81.3125
18.58909	86	81.4375	81.44043
18.59712	88	81.56543	81.56836
18.60515	79	81.69629	81.69922
18.61318	95	81.81445	81.81836
18.62121	98	81.93359	81.93652
18.62924	100	82.13574	82.13965
18.63727	84	82.33203	82.33496
18.6453	87	82.49219	82.49609
18.65333	84	82.62988	82.63379
18.66136	91	82.75488	82.75977
18.66939	105	82.8584	82.86426
18.67742	88	82.95117	82.95703
18.68545	103	83.04492	83.05078
18.69348	76	83.22266	83.22949
18.7015	88	83.3916	83.39844
18.70953	93	83.55566	83.56445
18.71756	89	83.71094	83.7207
18.72559	82	83.85352	83.86426
18.73362	103	83.98828	84
18.74165	76	84.10449	84.11816
18.74968	88	84.21094	84.22656
18.75771	88	84.31836	84.33496
18.76574	105	84.41992	84.44043
18.77377	78	84.50781	84.5293
18.7818	89	84.59473	84.62012
18.78983	84	84.84082	84.86914
18.79786	70	85.08691	85.11914
18.80589	84	85.33301	85.36914
18.81392	105	85.58008	85.62109
18.82195	64	85.95996	86.00586
18.82998	86	86.33203	86.38379
18.838	83	86.7002	86.75879
18.84603	84	87.06055	87.125
18.85406	100	87.41602	87.4873
18.86209	91	87.7666	87.8457
18.87012	95	88.10449	88.19141
18.87815	103	88.43652	88.53125
18.88618	94	88.76563	88.86914
18.89421	95	89.09375	89.20605
18.90224	93	89.41504	89.53711
18.91027	103	89.7334	89.86426
18.9183	100	90.0498	90.18945
18.92633	109	90.36426	90.5127
18.93436	99	90.67871	90.83594
18.94239	88	90.98438	91.15039
18.95041	96	91.28711	91.46094
18.95844	84	91.58984	91.77148
18.96647	103	91.8916	92.08008
18.9745	76	92.18945	92.38379
18.98253	105	92.4834	92.68359
18.99056	109	92.77734	92.98145
18.99859	100	93.07129	93.2793
19.00662	84	93.36328	93.57324
19.01465	107	93.64648	93.8584
19.02268	89	93.93066	94.14258
19.03071	93	94.22266	94.43359
19.03874	107	94.51465	94.72461
19.04677	102	94.79785	95.00488
19.0548	104	95.07715	95.28125
19.06283	96	95.34668	95.5459
19.07086	107	95.61133	95.80469
19.07889	110	95.87598	96.06348
19.08691	109	96.13965	96.32031
19.09494	94	96.39746	96.57129
19.10297	104	96.6377	96.80469
19.111	105	96.86914	97.02832
19.11903	102	97.10059	97.25195
19.12706	115	97.40234	97.54492
19.13509	111	97.68945	97.82422
19.14312	91	97.95117	98.07813
19.15115	112	98.1875	98.30762
19.15918	105	98.41211	98.52539
19.16721	109	98.6123	98.71875
19.17524	100	98.80078	98.90039
19.18327	118	98.98926	99.08301
19.1913	109	99.30566	99.39453
19.19933	103	99.60059	99.68359
19.20736	110	99.87695	99.95605
19.21539	121	100.1436	100.2188
19.22342	109	100.4111	100.4824
19.23144	92	100.6963	100.7646
19.23947	104	100.9824	101.0488
19.2475	111	101.2656	101.3301
19.25553	97	101.5303	101.5938
19.26356	117	101.7861	101.8496
19.27159	101	102.0166	102.0801
19.27962	109	102.2354	102.2998
19.28765	98	102.4482	102.5137
19.29568	128	102.6572	102.7256
19.30371	106	102.8672	102.9395
19.31174	89	103.0439	103.1201
19.31977	112	103.1982	103.2803
19.3278	89	103.3525	103.4404
19.33583	117	103.8467	103.9434
19.34385	119	104.3174	104.4238
19.35188	93	104.7754	104.8926
19.35991	100	105.2168	105.3486
19.36794	81	105.6182	105.7646
19.37597	101	105.998	106.1621
19.384	132	106.3633	106.5479
19.39203	104	106.7109	106.918
19.40006	113	107.0488	107.2822
19.40809	114	107.3545	107.6162
19.41612	97	107.6436	107.9375
19.42415	113	107.9336	108.2617
19.43218	127	108.3877	108.7539
19.44021	119	108.8428	109.251
19.44824	108	109.2998	109.7529
19.45627	117	109.7568	110.2588
19.4643	105	110.1846	110.7383
19.47233	116	110.5947	111.2031
19.48035	127	110.9766	111.6426
19.48838	107	111.3438	112.0693
19.49641	121	111.7119	112.499
19.50444	112	112.0381	112.8896
19.51247	108	112.3262	113.2432
19.5205	108	112.6143	113.5986
19.52853	122	113.249	114.2998
19.53656	114	113.8271	114.9443
19.54459	115	114.3691	115.5537
19.55262	123	114.876	116.125
19.56065	113	115.3643	116.6777
19.56868	105	115.8408	117.2158
19.57671	119	116.3125	117.7461
19.58474	109	116.7842	118.2754
19.59277	122	117.251	118.7949
19.6008	115	117.7148	119.3076
19.60883	124	118.1768	119.8154
19.61685	144	118.6387	120.3184
19.62488	143	119.0918	120.8096
19.63291	144	119.542	121.291
19.64094	114	119.9893	121.7676
19.64897	117	120.4365	122.2393
19.657	113	120.8848	122.707
19.66503	134	121.3252	123.1621
19.67306	150	121.7529	123.6006
19.68109	112	122.1738	124.0283
19.68912	131	122.5684	124.4258
19.69715	113	122.9492	124.8057
19.70518	102	123.3232	125.1748
19.71321	135	123.6943	125.5371
19.72124	131	124.0664	125.8975
19.72927	120	124.6104	126.4258
19.7373	132	125.1602	126.958
19.74533	119	125.7119	127.4873
19.75336	129	126.2637	128.0156
19.76138	138	126.8174	128.542
19.76941	129	127.3682	129.0615
19.77744	136	127.9082	129.5703
19.78547	129	128.4453	130.0732
19.7935	132	128.9629	130.5547
19.80153	135	129.4707	131.0244
19.80956	135	129.9639	131.4785
19.81759	126	130.4492	131.9248
19.82562	150	130.9326	132.3672
19.83365	146	131.3926	132.7881
19.84168	127	131.8418	133.1973
19.84971	127	132.248	133.5645
19.85774	139	132.6328	133.9111
19.86577	140	133.0186	134.2598
19.87379	157	133.6602	134.8672
19.88182	134	134.2686	135.4443
19.88985	137	134.832	135.9795
19.89788	148	135.373	136.4951
19.90591	143	135.915	137.0156
19.91394	132	136.4873	137.5713
19.92197	155	137.0479	138.1201
19.93	143	137.5869	138.6514
19.93803	151	138.1016	139.1641
19.94606	132	138.6045	139.6699
19.95409	134	139.0664	140.1416
19.96212	124	139.5088	140.5996
19.97015	150	139.9521	141.0654
19.97818	140	140.5137	141.6563
19.98621	157	141.0557	142.2334
19.99424	140	141.4971	142.7188
20.00227	130	141.8896	143.1621
20.01029	136	142.2822	143.6143
20.01832	157	143.168	144.5664
20.02635	159	144.0137	145.4883
20.03438	144	144.8086	146.3691
20.04241	140	145.542	147.1973
20.05044	141	146.2441	148.0049
20.05847	140	146.917	148.793
20.0665	161	147.5742	149.5771
20.07453	160	148.2344	150.375
20.08256	152	148.9473	151.2402
20.09059	138	149.6592	152.1152
20.09862	157	150.3262	152.9609
20.10665	168	150.9717	153.7988
20.11468	158	151.6191	154.6533
20.12271	174	152.2471	155.5049
20.13074	148	152.8574	156.3574
20.13877	149	153.4688	157.2285
20.1468	157	154.1816	158.2188
20.15482	169	154.8818	159.2178
20.16285	167	155.5635	160.2178
20.17088	183	156.2246	161.2217
20.17891	181	156.8779	162.2393
20.18694	158	157.5195	163.2705
20.19497	167	158.1563	164.3232
20.203	172	158.7949	165.4043
20.21103	186	159.4424	166.5225
20.21906	171	160.0908	167.6719
20.22709	175	160.7402	168.8545
20.23512	177	161.3818	170.0625
20.24315	187	162.0205	171.3018
20.25118	172	162.6563	172.5732
20.2592	187	163.2842	173.876
20.26723	167	163.9033	175.209
20.27526	187	164.5186	176.5791
20.28329	184	165.1299	177.9883
20.29132	181	165.7363	179.4385
20.29935	189	166.3389	180.9307
20.30738	182	166.9346	182.4648
20.31541	186	167.5283	184.0479
20.32344	194	168.1201	185.6807
20.33147	209	168.707	187.3633
20.3395	212	169.293	189.1016
20.34753	213	169.8721	190.8906
20.35556	182	170.4482	192.7383
20.36359	188	171.0254	194.6484
20.37162	198	171.6045	196.624
20.37965	203	172.1826	198.6641
20.38768	199	172.7559	200.7676
20.39571	213	173.3262	202.9375
20.40373	221	173.8887	205.1709
20.41176	217	174.4473	207.4746
20.41979	205	175	209.8467
20.42782	234	175.5488	212.291
20.43585	217	176.0918	214.8086
20.44388	226	176.6328	217.4023
20.45191	223	177.166	220.0703
20.45994	252	177.6934	222.8164
20.46797	245	178.2119	225.6367
20.476	247	178.7256	228.5381
20.48403	264	179.2305	231.5186
20.49206	222	179.7314	234.582
20.50009	233	180.2256	237.7285
20.50812	264	180.7178	240.9629
20.51615	241	181.208	244.2881
20.52418	264	181.6885	247.6953
20.53221	270	182.166	251.1924
20.54023	262	182.6387	254.7793
20.54826	291	183.1094	258.459
20.55629	247	183.5801	262.2344
20.56432	330	184.04	266.0947
20.57235	276	184.4961	270.0459
20.58038	250	184.9482	274.0898
20.58841	295	185.3984	278.2285
20.59644	305	185.8438	282.458
20.60447	280	186.2842	286.7783
20.6125	304	186.7188	291.1895
20.62053	300	187.1504	295.6904
20.62856	316	187.5713	300.2754
20.63659	277	187.9883	304.9482
20.64462	316	188.3955	309.7031
20.65265	305	188.7998	314.5439
20.66068	335	189.1963	319.4648
20.6687	329	189.5898	324.4688
20.67673	325	189.9785	329.5508
20.68476	367	190.3623	334.709
20.69279	326	190.7324	339.9316
20.70082	362	191.0967	345.2227
20.70885	372	191.4502	350.5732
20.71688	386	191.7969	355.9863
20.72491	381	192.1377	361.4561
20.73294	365	192.4736	366.9824
20.74097	382	192.8086	372.5605
20.749	402	193.1309	378.1768
20.75703	357	193.4463	383.8311
20.76506	402	193.7588	389.5234
20.77309	399	194.0693	395.248
20.78112	398	194.3809	401.002
20.78914	402	194.6797	406.7676
20.79717	377	194.9727	412.5439
20.8052	397	195.2617	418.3271
20.81323	443	195.5488	424.1113
20.82126	414	195.8311	429.8887
20.82929	436	196.1055	435.6504
20.83732	456	196.374	441.3896
20.84535	451	196.6377	447.1006
20.85338	475	196.8906	452.7715
20.86141	429	197.1387	458.3994
20.86944	427	197.377	463.9736
20.87747	459	197.6113	469.4912
20.8855	449	197.8379	474.9414
20.89353	467	198.0605	480.3213
20.90156	533	198.2783	485.6221
20.90959	464	198.4922	490.8359
20.91762	492	198.6914	495.9473
20.92565	513	198.8848	500.9551
20.93367	494	199.0635	505.8447
20.9417	518	199.2354	510.6162
20.94973	529	199.4004	515.2617
20.95776	489	199.5596	519.7773
20.96579	496	199.7158	524.1563
20.97382	485	199.8604	528.3848
20.98185	482	199.998	532.46
20.98988	494	200.1328	536.3809
20.99791	503	200.2656	540.1406
21.00594	539	200.3955	543.7324
21.01397	500	200.5146	547.1436
21.022	543	200.6299	550.375
21.03003	526	200.7373	553.418
21.03806	546	200.8418	556.2705
21.04609	578	200.9434	558.9297
21.05412	515	201.0381	561.3867
21.06215	572	201.127	563.6387
21.07017	563	201.208	565.6797
21.0782	580	201.2793	567.5039
21.08623	553	201.3447	569.1143
21.09426	546	201.4023	570.502
21.10229	575	201.4541	571.6719
21.11032	570	201.499	572.6172
21.11835	541	201.541	573.3408
21.12638	592	201.5781	573.8408
21.13441	538	201.6113	574.1162
21.14244	519	201.6328	574.1611
21.15047	587	201.6455	573.9756
21.1585	596	201.6465	573.5576
21.16653	583	201.6406	572.9141
21.17456	535	201.625	572.043
21.18258	544	201.6045	570.9502
21.19061	549	201.5811	569.6387
21.19864	588	201.5459	568.1035
21.20667	579	201.5049	566.3525
21.2147	619	201.4609	564.3916
21.22273	635	201.4141	562.2236
21.23076	563	201.3613	559.8496
21.23879	557	201.3018	557.2725
21.24682	574	201.2383	554.5
21.25485	554	201.167	551.5322
21.26288	508	201.0908	548.377
21.27091	509	201.0127	545.042
21.27894	564	200.9297	541.5303
21.28697	567	200.8408	537.8467
21.295	562	200.7451	533.9951
21.30303	531	200.6406	529.9814
21.31106	572	200.5313	525.8125
21.31909	587	200.4131	521.4951
21.32711	508	200.292	517.0391
21.33514	516	200.1631	512.4473
21.34317	564	200.0313	507.7305
21.3512	551	199.8984	502.8984
21.35923	520	199.7578	497.9531
21.36726	514	199.6133	492.9043
21.37529	517	199.459	487.752
21.38332	510	199.2939	482.5049
21.39135	527	199.123	477.1748
21.39938	460	198.9424	471.7656
21.40741	514	198.7568	466.2881
21.41544	473	198.5693	460.7539
21.42347	460	198.373	455.166
21.4315	465	198.1729	449.5332
21.43953	447	197.9678	443.8613
21.44756	456	197.7578	438.1621
21.45559	462	197.543	432.4385
21.46361	454	197.3223	426.6982
21.47164	426	197.0977	420.9502
21.47967	417	196.8662	415.1992
21.4877	440	196.6318	409.4551
21.49573	441	196.3955	403.7246
21.50376	394	196.1553	398.0137
21.51179	383	195.9102	392.3271
21.51982	411	195.6592	386.6709
21.52785	375	195.4033	381.0518
21.53588	382	195.1396	375.4736
21.54391	386	194.8721	369.9453
21.55194	379	194.6006	364.4756
21.55997	368	194.3252	359.0693
21.568	367	194.0469	353.7344
21.57603	362	193.7617	348.4746
21.58405	318	193.4736	343.3018
21.59208	319	193.1836	338.2256
21.60011	305	192.8877	333.248
21.60814	322	192.5869	328.3818
21.61617	290	192.2803	323.6357
21.6242	333	191.9668	319.0195
21.63223	301	191.6504	314.5508
21.64026	300	191.3262	310.2393
21.64829	293	190.998	306.1035
21.65632	304	190.6689	302.1641
21.66435	283	190.3379	298.4404
21.67238	275	190.0029	294.9502
21.68041	320	189.666	291.7197
21.68844	272	189.3252	288.7725
21.69647	262	188.9756	286.1309
21.7045	251	188.6211	283.8281
21.71252	288	188.2627	281.8975
21.72055	261	187.9023	280.374
21.72858	268	187.542	279.292
21.73661	288	187.1758	278.6846
21.74464	275	186.8076	278.5898
21.75267	270	186.4395	279.0479
21.7607	253	186.0635	280.084
21.76873	246	185.6826	281.7383
21.77676	267	185.2998	284.0459
21.78479	280	184.9141	287.0361
21.79282	243	184.5264	290.7373
21.80085	249	184.1318	295.166
21.80888	271	183.7354	300.3447
21.81691	282	183.3359	306.2852
21.82494	296	182.9336	312.9932
21.83297	290	182.5303	320.4678
21.841	335	182.124	328.7002
21.84903	321	181.7168	337.6768
21.85705	309	181.3076	347.3721
21.86508	321	180.8965	357.7578
21.87311	348	180.4824	368.7939
21.88114	363	180.0664	380.4395
21.88917	348	179.6465	392.6426
21.8972	407	179.2236	405.3506
21.90523	393	178.8008	418.5088
21.91326	398	178.374	432.0508
21.92129	441	177.9443	445.916
21.92932	460	177.5117	460.041
21.93735	483	177.0742	474.3584
21.94538	497	176.6348	488.8076
21.95341	480	176.1934	503.3271
21.96144	496	175.751	517.8584
21.96947	535	175.3086	532.3418
21.9775	550	174.8604	546.7148
21.98553	538	174.4102	560.9248
21.99355	541	173.958	574.917
22.00158	519	173.5049	588.6377
22.00961	609	173.0518	602.0313
22.01764	572	172.5938	615.0342
22.02567	603	172.1328	627.5898
22.0337	628	171.6719	639.6338
22.04173	627	171.21	651.0996
22.04976	645	170.748	661.9121
22.05779	624	170.2852	671.9912
22.06582	677	169.8203	681.2539
22.07385	685	169.3574	689.6113
22.08188	663	168.8926	696.9717
22.08991	695	168.4268	703.2393
22.09794	686	167.9561	708.3125
22.10596	683	167.4824	712.1006
22.11399	777	167.0078	714.5146
22.12202	732	166.5313	715.4697
22.13005	721	166.0547	714.8916
22.13808	753	165.5713	712.71
22.14611	740	165.0859	708.8789
22.15414	694	164.6006	703.3682
22.16217	736	164.125	696.1729
22.1702	705	163.6504	687.2881
22.17823	704	163.165	676.7324
22.18626	692	162.6748	664.5586
22.19429	695	162.1836	650.8398
22.20232	682	161.6914	635.6709
22.21035	667	161.1982	619.1621
22.21838	600	160.7002	601.4404
22.22641	576	160.1992	582.6543
22.23444	613	159.6992	562.9658
22.24246	578	159.2129	542.5566
22.25049	547	158.7227	521.585
22.25852	496	158.2236	500.2266
22.26655	533	157.7207	478.6641
22.27458	478	157.2188	457.0781
22.28261	499	156.7432	435.6621
22.29064	429	156.2607	414.5439
22.29867	378	155.7607	393.8584
22.3067	384	155.2529	373.7471
22.31473	384	154.7461	354.3389
22.32276	342	154.2822	335.7754
22.33079	336	153.8125	318.0908
22.33882	332	153.3145	301.3262
22.34685	292	152.8027	285.5459
22.35488	305	152.292	270.793
22.36291	266	151.8438	257.1465
22.37094	238	151.3828	244.5293
22.37897	216	150.8965	232.916
22.38699	215	150.3984	222.2959
22.39502	193	149.9004	212.6455
22.40305	202	149.4414	203.9609
22.41108	193	148.9668	196.1377
22.41911	151	148.4873	189.1338
22.42714	159	148.0078	182.8945
22.43517	148	147.5283	177.3623
22.4432	159	147.0557	172.4844
22.45123	162	146.5674	168.1787
22.45926	146	146.0791	164.4033
22.46729	157	145.5918	161.1025
22.47532	152	145.1035	158.2256
22.48335	153	144.6387	155.7432
22.49138	138	144.1621	153.5771
22.4994	156	143.6729	151.6855
22.50743	144	143.1787	150.0371
22.51546	137	142.6855	148.6045
22.52349	149	142.1797	147.3418
22.53152	145	141.6611	146.2256
22.53955	165	141.1436	145.2432
22.54758	131	140.6768	144.4258
22.55561	130	140.2061	143.7002
22.56364	143	139.6914	143.0117
22.57167	132	139.1553	142.3691
22.5797	128	138.6201	141.7871
22.58773	139	138.3135	141.4814
22.59576	159	138.0078	141.2178
22.60379	137	137.6299	140.917
22.61182	138	137.2168	140.6113
22.61985	123	136.8047	140.332
22.62788	144	136.5068	140.1914
22.6359	157	136.2109	140.0703
22.64393	136	136.2314	140.2842
22.65196	136	136.2158	140.4785
22.65999	129	136.2012	140.6865
22.66802	140	136.1992	140.9219
22.67605	111	136.1709	141.1436
22.68408	152	136.1289	141.3623
22.69211	153	136.0654	141.5693
22.70014	136	135.9893	141.7744
22.70817	146	135.9072	141.9844
22.7162	143	135.8154	142.1924
22.72423	140	135.7178	142.4033
22.73226	164	135.6201	142.623
22.74029	145	135.5244	142.8525
22.74832	160	135.417	143.0771
22.75635	150	135.3037	143.3047
22.76438	158	135.1758	143.5254
22.7724	142	135.041	143.7451
22.78043	172	134.8887	143.9551
22.78846	152	134.7266	144.1631
22.79649	152	134.5654	144.3789
22.80452	170	134.4824	144.6797
22.81255	150	134.3828	144.9717
22.82058	140	134.2793	145.2686
22.82861	138	134.1484	145.5469
22.83664	132	134.0039	145.8203
22.84467	137	133.8389	146.0811
22.8527	123	133.6621	146.3428
22.86073	143	133.4863	146.6143
22.86876	158	133.4248	147.0127
22.87679	185	133.3525	147.4121
22.88482	158	133.2734	147.8174
22.89285	144	133.1709	148.2129
22.90088	151	133.0566	148.6123
22.90891	187	132.9355	149.0205
22.91693	156	132.8125	149.4414
22.92496	168	132.6777	149.8682
22.93299	174	132.5371	150.3076
22.94102	152	132.3945	150.7627
22.94905	161	132.25	151.2354
22.95708	151	132.1055	151.7275
22.96511	160	131.9551	152.2344
22.97314	158	131.8008	152.7578
22.98117	153	131.6436	153.2988
22.9892	145	131.4707	153.8477
22.99723	162	131.291	154.4102
23.00526	148	131.1084	154.9912
23.01329	150	130.9238	155.5928
23.02132	163	130.7393	156.2158
23.02934	173	130.5859	156.8936
23.03737	168	130.4268	157.5859
23.0454	175	130.2676	158.3008
23.05343	158	130.0986	159.0293
23.06146	175	129.9199	159.7676
23.06949	174	129.7344	160.5205
23.07752	144	129.5449	161.291
23.08555	165	129.3555	162.082
23.09358	156	129.1875	162.915
23.10161	150	129.0146	163.7617
23.10964	174	128.8389	164.626
23.11767	146	128.6602	165.5049
23.1257	154	128.4707	166.3926
23.13373	181	128.2764	167.293
23.14176	162	128.0752	168.2031
23.14979	163	127.8701	169.127
23.15782	196	127.665	170.0664
23.16584	171	127.4531	171.0146
23.17387	184	127.2383	171.9746
23.1819	165	127.0234	172.9492
23.18993	186	126.8164	173.9453
23.19796	177	126.6016	174.9463
23.20599	177	126.3838	175.9561
23.21402	172	126.1582	176.9697
23.22205	168	125.9287	177.9902
23.23008	173	125.6973	179.0186
23.23811	196	125.4658	180.0547
23.24614	169	125.2334	181.0996
23.25417	173	125.001	182.1514
23.2622	159	124.7656	183.207
23.27023	190	124.5313	184.2695
23.27826	193	124.2988	185.3379
23.28629	217	124.0566	186.4014
23.29432	184	123.8105	187.4629
23.30234	211	123.5605	188.5215
23.31037	190	123.3076	189.5791
23.3184	197	123.0547	190.6367
23.32643	180	122.8018	191.6934
23.33446	182	122.541	192.7393
23.34249	202	122.2813	193.7822
23.35052	183	122.0234	194.8232
23.35855	192	121.7607	195.8545
23.36658	186	121.4912	196.8711
23.37461	180	121.2178	197.876
23.38264	196	120.9434	198.8711
23.39067	199	120.6621	199.8506
23.3987	223	120.3789	200.8154
23.40673	214	120.0957	201.7686
23.41475	205	119.8213	202.7168
23.42278	222	119.543	203.6465
23.43081	210	119.2617	204.5586
23.43884	211	118.9736	205.4453
23.44687	185	118.6816	206.3115
23.4549	199	118.3887	207.1563
23.46293	179	118.0938	207.9795
23.47096	232	117.7979	208.7803
23.47899	206	117.4961	209.5527
23.48702	201	117.1914	210.2998
23.49505	191	116.8857	211.0195
23.50308	211	116.5791	211.7148
23.51111	201	116.2676	212.3779
23.51914	218	115.9541	213.0107
23.52717	206	115.6396	213.6152
23.5352	218	115.3252	214.1885
23.54323	220	115.0098	214.7324
23.55126	228	114.6895	215.2402
23.55928	216	114.3672	215.7129
23.56731	185	114.0449	216.1533
23.57534	229	113.7168	216.5537
23.58337	195	113.3857	216.918
23.5914	227	113.0508	217.2432
23.59943	232	112.7129	217.5303
23.60746	233	112.375	217.7803
23.61549	205	112.0332	217.9902
23.62352	233	111.6904	218.1611
23.63155	214	111.3457	218.2939
23.63958	227	111.001	218.3867
23.64761	209	110.6553	218.4404
23.65564	223	110.3057	218.4521
23.66367	200	109.9512	218.4189
23.6717	200	109.5947	218.3447
23.67973	209	109.2305	218.2236
23.68776	205	108.8643	218.0605
23.69578	246	108.4961	217.8555
23.70381	213	108.127	217.6094
23.71184	229	107.7578	217.3232
23.71987	194	107.3828	216.9912
23.7279	220	107.0039	216.6162
23.73593	215	106.626	216.2021
23.74396	205	106.2617	215.7627
23.75199	180	105.8945	215.2813
23.76002	250	105.5234	214.7559
23.76805	219	105.1494	214.1904
23.77608	182	104.7744	213.584
23.78411	235	104.3975	212.9404
23.79214	191	104.0225	212.2598
23.80017	192	103.6484	211.5449
23.8082	207	103.2705	210.7891
23.81623	225	102.8906	209.9961
23.82425	237	102.5088	209.167
23.83228	202	102.125	208.3008
23.84031	193	101.7383	207.3994
23.84834	221	101.3457	206.459
23.85637	205	100.9473	205.4814
23.8644	189	100.5459	204.4697
23.87243	215	100.1416	203.4238
23.88046	176	99.73242	202.3447
23.88849	209	99.32227	201.2354
23.89652	190	98.90918	200.0957
23.90455	191	98.49121	198.9238
23.91258	219	98.07227	197.7246
23.92061	198	97.64941	196.4951
23.92864	215	97.22461	195.2393
23.93667	184	96.80078	193.959
23.94469	182	96.37891	192.6572
23.95272	186	95.95313	191.3271
23.96075	209	95.52832	189.9766
23.96878	198	95.12109	188.6211
23.97681	189	94.71191	187.2412
23.98484	168	94.29883	185.8369
23.99287	198	93.88379	184.4102
24.0009	193	93.46875	182.9629
24.00893	200	93.05371	181.4961
24.01696	199	92.64063	180.0107
24.02499	194	92.23145	178.5117
24.03302	174	91.81738	176.9902
24.04105	183	91.40039	175.4473
24.04908	187	90.98145	173.8877
24.05711	191	90.56055	172.3086
24.06514	163	90.13672	170.7129
24.07317	183	89.70703	169.0967
24.0812	214	89.27051	167.4609
24.08922	170	88.83301	165.8125
24.09725	181	88.3916	164.1484
24.10528	167	87.94336	162.4697
24.11331	164	87.49316	160.7803
24.12134	167	87.03906	159.0791
24.12937	162	86.58301	157.3711
24.1374	166	86.12695	155.6592
24.14543	151	85.66797	153.9414
24.15346	156	85.20801	152.2207
24.16149	141	84.74512	150.4971
24.16952	164	84.28125	148.7744
24.17755	152	83.81836	147.0547
24.18558	149	83.38379	145.3682
24.19361	146	82.9502	143.6875
24.20164	144	82.51758	142.0146
24.20967	139	82.08301	140.3467
24.2177	122	81.64648	138.6855
24.22572	136	81.20996	137.0342
24.23375	148	80.77441	135.3945
24.24178	146	80.33984	133.7666
24.24981	135	79.90918	132.1543
24.25784	137	79.47461	130.5508
24.26587	139	79.03516	128.9561
24.2739	130	78.59473	127.373
24.28193	133	78.15039	125.8018
24.28996	137	77.70605	124.2432
24.29799	97	77.25586	122.6943
24.30602	133	76.80273	121.1572
24.31405	113	76.3457	119.6318
24.32208	111	75.88574	118.1191
24.33011	118	75.41895	116.6143
24.33813	133	74.94922	115.123
24.34616	105	74.47461	113.6416
24.35419	110	73.99902	112.1748
24.36222	97	73.52246	110.7236
24.37025	104	73.04492	109.2871
24.37828	110	72.56738	107.8672
24.38631	107	72.08496	106.458
24.39434	115	71.60059	105.0635
24.40237	94	71.11719	103.6865
24.4104	108	70.68066	102.3721
24.41843	103	70.24512	101.0762
24.42646	105	69.81152	99.79785
24.43449	100	69.37305	98.5332
24.44252	93	68.93359	97.28418
24.45055	107	68.49219	96.05371
24.45858	97	68.05371	94.84277
24.46661	88	67.61621	93.65332
24.47463	90	67.18066	92.48633
24.48266	98	66.74316	91.33887
24.49069	74	66.29883	90.20801
24.49872	77	65.85254	89.09863
24.50675	78	65.4043	88.01367
24.51478	98	64.95508	86.95703
24.52281	87	64.50293	85.92773
24.53084	82	64.0498	84.93164
24.53887	80	63.59375	83.96973
24.5469	88	63.13477	83.0459
24.55493	72	62.66992	82.16211
24.56296	79	62.20215	81.32617
24.57099	83	61.72949	80.54199
24.57902	61	61.25391	79.81934
24.58705	82	60.7793	79.16797
24.59508	72	60.30469	78.5957
24.60311	55	59.83008	78.11133
24.61114	79	59.35059	77.7207
24.61916	65	58.87012	77.43555
24.62719	71	58.39063	77.27246
24.63522	68	57.96484	77.29395
24.64325	68	57.54004	77.46094
24.65128	85	57.11719	77.78613
24.65931	66	56.69141	78.2793
24.66734	69	56.26074	78.94922
24.67537	74	55.82813	79.81348
24.6834	62	55.39648	80.88672
24.69143	70	54.97559	82.19238
24.69946	63	54.55664	83.72852
24.70749	70	54.13477	85.50195
24.71552	93	53.7041	87.51367
24.72355	91	53.27148	89.77344
24.73158	82	52.83594	92.28516
24.7396	88	52.39941	95.04883
24.74763	102	51.96387	98.06152
24.75566	99	51.5293	101.3174
24.76369	114	51.09277	104.7988
24.77172	116	50.6543	108.4932
24.77975	101	50.20996	112.374
24.78778	98	49.76367	116.4219
24.79581	142	49.31152	120.6055
24.80384	128	48.85938	124.8945
24.81187	136	48.40625	129.2549
24.8199	134	47.9541	133.6455
24.82793	127	47.50293	138.0254
24.83596	124	47.04785	142.3428
24.84399	150	46.59082	146.5527
24.85202	125	46.13672	150.6104
24.86005	161	45.73438	154.5166
24.86807	144	45.33398	158.1719
24.8761	154	44.93457	161.5303
24.88413	149	44.53711	164.5459
24.89216	164	44.13086	167.168
24.90019	151	43.72266	169.3643
24.90822	145	43.31543	171.1055
24.91625	183	42.92578	172.3809
24.92428	178	42.53711	173.1514
24.93231	151	42.14355	173.3965
24.94034	196	41.74316	173.1064
24.94837	200	41.34082	172.2832
24.9564	188	40.93457	170.9316
24.96443	168	40.52734	169.0664
24.97246	168	40.12207	166.71
24.98049	146	39.72461	163.8926
24.98852	195	39.32422	160.6348
24.99655	166	38.92383	156.9746
25.00458	162	38.5166	152.9463
25.0126	130	38.1084	148.5977
25.02063	140	37.69531	143.9746
25.02866	147	37.28223	139.127
25.03669	141	36.86914	134.1045
25.04472	119	36.45605	128.958
25.05275	156	36.04395	123.7354
25.06078	131	35.63086	118.4805
25.06881	120	35.21875	113.2412
25.07684	109	34.80859	108.0615
25.08487	104	34.44141	103.0205
25.0929	118	34.07715	98.11035
25.10093	99	33.71387	93.36328
25.10896	98	33.35352	88.80469
25.11699	105	32.98828	84.45215
25.12502	77	32.61914	80.32227
25.13305	90	32.25195	76.43555
25.14108	68	31.90527	72.81836
25.1491	68	31.55859	69.45898
25.15713	73	31.20703	66.35059
25.16516	62	30.85059	63.49414
25.17319	69	30.49121	60.88867
25.18122	57	30.12891	58.52539
25.18925	58	29.76465	56.39746
25.19728	56	29.40332	54.49902
25.20531	50	29.05566	52.8291
25.21334	51	28.70605	51.35938
25.22137	47	28.35547	50.07715
25.2294	55	28	48.96484
25.23743	46	27.64258	48.00977
25.24546	50	27.2832	47.19922
25.25349	47	26.92383	46.52148
25.26151	45	26.5625	45.95996
25.26954	39	26.20117	45.50391
25.27757	40	25.8418	45.1416
25.2856	40	25.48438	44.8623
25.29363	49	25.12891	44.6543
25.30166	38	24.78027	44.51172
25.30969	37	24.45996	44.44434
25.31772	42	24.1416	44.41699
25.32575	48	23.82617	44.41992
25.33378	41	23.51172	44.44434
25.34181	57	23.19922	44.47949
25.34984	48	22.88281	44.51367
25.35787	55	22.56836	44.54297
25.3659	43	22.27148	44.57715
25.37393	39	21.97559	44.59082
25.38196	50	21.6748	44.57129
25.38999	50	21.37109	44.51465
25.39801	48	21.06738	44.41699
25.40604	46	20.75977	44.26758
25.41407	40	20.45117	44.06641
25.4221	53	20.14453	43.81055
25.43013	59	19.85547	43.51074
25.43816	49	19.56445	43.14648
25.44619	45	19.27344	42.71582
25.45422	49	18.97852	42.21289
25.46225	49	18.68164	41.64063
25.47028	32	18.38477	41
25.47831	45	18.08789	40.29199
25.48634	44	17.78906	39.51758
25.49437	60	17.49121	38.68164
25.5024	40	17.19434	37.78711
25.51043	52	16.89844	36.84082
25.51846	27	16.60645	35.84863
25.52649	29	16.33398	34.83203
25.53452	37	16.06641	33.78418
25.54254	30	15.80469	32.70996
25.55057	42	15.54395	31.61328
25.5586	37	15.28516	30.50098
25.56663	24	15.03125	29.38379
25.57466	27	14.77637	28.25977
25.58269	17	14.52246	27.14063
25.59072	35	14.2793	26.04102
25.59875	23	14.03809	24.95703
25.60678	23	13.79199	23.88965
25.61481	19	13.5459	22.84473
25.62284	14	13.30176	21.83203
25.63087	19	13.06055	20.85254
25.6389	18	12.81836	19.9082
25.64692	21	12.57813	19.00293
25.65495	13	12.34766	18.14551
25.66298	19	12.11719	17.3291
25.67101	19	11.8877	16.55371
25.67904	9	11.65723	15.81738
25.68707	15	11.42578	15.12109
25.6951	15	11.19629	14.46484
25.70313	15	10.96777	13.84766
25.71116	9	10.73926	13.26758
25.71919	10	10.51172	12.72266
25.72722	11	10.28711	12.21289
25.73525	11	10.06348	11.73535
25.74328	9	9.842773	11.28906
25.75131	7	9.630859	10.87793
25.75934	7	9.421875	10.49316
25.76737	14	9.241211	10.15918
25.7754	10	9.0625	9.84668
25.78343	5	8.896484	9.564453
25.79145	10	8.731445	9.300781
25.79948	9	8.569336	9.051758
25.80751	8	8.408203	8.817383
25.81554	12	8.292969	8.640625
25.82357	7	8.178711	8.473633
25.8316	11	8.066406	8.316406
25.83963	7	7.954102	8.166016
25.84766	6	7.852539	8.03418
25.85569	14	7.748047	7.90332
25.86372	6	7.609375	7.743164
25.87175	6	7.455078	7.571289
25.87978	9	7.302734	7.40332
25.88781	4	7.40332	7.492188
25.89584	6	7.484375	7.563477
25.90387	8	7.544922	7.616211
25.9119	7	7.591797	7.655273
25.91993	10	7.630859	7.688477
25.92795	7	7.661133	7.714844
25.93598	10	7.686523	7.736328
25.94401	7	7.711914	7.758789
25.95204	8	7.737305	7.78125
25.96007	11	7.755859	7.797852
25.9681	7	7.775391	7.81543
25.97613	10	7.798828	7.837891
25.98416	11	7.818359	7.855469
25.99219	14	7.838867	7.874023
26.00022	7	7.860352	7.895508
26.00825	12	7.882813	7.916016
26.01628	6	7.901367	7.933594
26.02431	6	7.917969	7.950195
26.03234	6	7.926758	7.958008
26.04037	9	7.932617	7.961914
26.0484	15	7.9375	7.966797
26.05643	5	7.953125	7.981445
26.06446	9	7.96875	7.996094
26.07248	12	7.96582	7.992188
26.08051	5	7.948242	7.974609
26.08854	11	7.931641	7.957031
26.09657	7	8.009766	8.03418
26.1046	12	8.077148	8.101563
26.11263	3	8.12793	8.151367
26.12066	12	8.168945	8.192383
26.12869	9	8.209961	8.233398
26.13672	5	8.246094	8.268555
26.14475	14	8.275391	8.296875
26.15278	5	8.303711	8.325195
26.16081	9	8.347656	8.369141
26.16884	8	8.387695	8.408203
26.17687	7	8.426758	8.446289
26.18489	13	8.464844	8.484375
26.19292	17	8.498047	8.516602
26.20095	14	8.52832	8.546875
26.20898	4	8.556641	8.575195
26.21701	12	8.583984	8.602539
26.22504	7	8.612305	8.629883
26.23307	10	8.632813	8.651367
26.2411	12	8.650391	8.667969
26.24913	11	8.666992	8.68457
26.25716	6	8.691406	8.709961
26.26519	9	8.707031	8.724609
26.27322	7	8.722656	8.740234
26.28125	10	8.744141	8.762695
26.28928	13	8.762695	8.782227
26.29731	16	8.761719	8.78125
26.30534	8	8.75	8.769531
26.31337	4	8.738281	8.758789
26.32139	4	8.814453	8.835938
26.32942	10	8.883789	8.90625
26.33745	10	8.942383	8.96582
26.34548	17	8.988281	9.012695
26.35351	8	9.02832	9.053711
26.36154	14	9.061523	9.087891
26.36957	6	9.09082	9.118164
26.3776	15	9.120117	9.149414
26.38563	6	9.15918	9.19043
26.39366	10	9.199219	9.232422
26.40169	6	9.237305	9.272461
26.40972	20	9.275391	9.3125
26.41775	5	9.305664	9.345703
26.42578	10	9.332031	9.375
26.43381	12	9.357422	9.40332
26.44184	9	9.379883	9.428711
26.44987	16	9.400391	9.453125
26.45789	14	9.413086	9.469727
26.46592	6	9.421875	9.482422
26.47395	12	9.430664	9.495117
26.48198	8	9.475586	9.545898
26.49001	9	9.516602	9.59082
26.49804	11	9.543945	9.624023
26.50607	13	9.564453	9.650391
26.5141	9	9.581055	9.672852
26.52213	12	9.585938	9.68457
26.53016	10	9.584961	9.691406
26.53819	13	9.583984	9.698242
26.54622	11	9.639648	9.762695
26.55425	14	9.689453	9.820313
26.56228	12	9.726563	9.867188
26.5703	16	9.756836	9.907227
26.57833	8	9.78418	9.945313
26.58636	8	9.804688	9.977539
26.59439	14	9.823242	10.00684
26.60242	6	9.84082	10.03711
26.61045	8	9.874023	10.08496
26.61848	11	9.908203	10.13281
26.62651	15	9.935547	10.1748
26.63454	12	9.958008	10.21387
26.64257	10	9.981445	10.25391
26.6506	9	10.01465	10.30566
26.65863	10	10.04785	10.35742
26.66666	11	10.0752	10.40527
26.67469	17	10.09961	10.4502
26.68272	11	10.12402	10.49707
26.69075	11	10.16309	10.55859
26.69878	9	10.19922	10.62012
26.70681	10	10.23145	10.67871
26.71483	5	10.2627	10.73633
26.72286	6	10.29297	10.7959
26.73089	14	10.32324	10.85547
26.73892	9	10.35059	10.91504
26.74695	8	10.37695	10.97461
26.75498	11	10.41211	11.04492
26.76301	13	10.44629	11.11426
26.77104	14	10.47656	11.18359
26.77907	11	10.50586	11.25293
26.7871	12	10.53613	11.32324
26.79513	13	10.56738	11.39844
26.80316	12	10.59961	11.47559
26.81119	16	10.62988	11.55273
26.81922	10	10.66016	11.63281
26.82725	18	10.68945	11.71289
26.83528	8	10.71875	11.79492
26.84331	13	10.74707	11.87891
26.85133	13	10.77539	11.96484
26.85936	13	10.80273	12.05176
26.86739	22	10.83008	12.14063
26.87542	23	10.85938	12.23438
26.88345	17	10.8877	12.3291
26.89148	13	10.91504	12.4248
26.89951	12	10.94043	12.52148
26.90754	16	10.96582	12.62109
26.91557	16	10.99902	12.72949
26.9236	12	11.03027	12.83984
26.93163	11	11.05957	12.9502
26.93966	18	11.08789	13.06152
26.94769	16	11.11621	13.17578
26.95572	10	11.14453	13.29297
26.96375	17	11.17188	13.41113
26.97178	15	11.19922	13.53223
26.9798	16	11.23047	13.65918
26.98783	22	11.26074	13.78809
26.99586	15	11.29004	13.91797
27.00389	16	11.31836	14.0498
27.01192	18	11.34766	14.18457
27.01995	14	11.37695	14.32129
27.02798	15	11.40527	14.45996
27.03601	16	11.43262	14.60156
27.04404	20	11.46094	14.74414
27.05207	20	11.4873	14.88867
27.0601	21	11.51465	15.03516
27.06813	13	11.54199	15.18359
27.07616	24	11.56836	15.33398
27.08419	20	11.5957	15.4873
27.09222	16	11.62305	15.64258
27.10024	10	11.65039	15.79883
27.10827	16	11.67773	15.95703
27.1163	9	11.70508	16.11719
27.12433	24	11.73145	16.27832
27.13236	12	11.75879	16.44141
27.14039	19	11.78516	16.60449
27.14842	18	11.81152	16.76953
27.15645	16	11.83789	16.93555
27.16448	12	11.86426	17.10156
27.17251	17	11.89063	17.26855
27.18054	13	11.91699	17.43652
27.18857	23	11.94238	17.60449
27.1966	23	11.96777	17.77246
27.20463	20	11.99219	17.93945
27.21266	16	12.01758	18.10742
27.22069	16	12.04297	18.27539
27.22872	27	12.06738	18.44238
27.23675	10	12.09277	18.60938
27.24477	14	12.11719	18.77637
27.2528	25	12.14258	18.94141
27.26083	20	12.16797	19.10645
27.26886	21	12.19141	19.26855
27.27689	20	12.21484	19.42871
27.28492	24	12.23828	19.58789
27.29295	21	12.26172	19.74609
27.30098	23	12.28418	19.90137
27.30901	27	12.30762	20.05469
27.31704	21	12.33105	20.20605
27.32507	37	12.35352	20.35449
27.3331	28	12.37695	20.50098
27.34113	22	12.40039	20.64453
27.34916	26	12.42383	20.78613
27.35719	25	12.44727	20.92383
27.36522	16	12.46875	21.05762
27.37325	20	12.49023	21.18652
27.38127	29	12.5127	21.31348
27.3893	28	12.53516	21.4375
27.39733	16	12.55762	21.55664
27.40536	28	12.58008	21.67188
27.41339	23	12.60254	21.7832
27.42142	19	12.625	21.89063
27.42945	22	12.64648	21.99316
27.43748	19	12.66797	22.08984
27.44551	25	12.68848	22.18164
27.45354	16	12.70801	22.26855
27.46157	25	12.72559	22.34863
27.4696	24	12.74414	22.4248
27.47763	28	12.76758	22.5
27.48566	20	12.79102	22.57031
27.49368	25	12.8125	22.63477
27.50171	29	12.83301	22.69238
27.50974	28	12.85254	22.74414
27.51777	28	12.87207	22.79004
27.5258	21	12.89063	22.83105
27.53383	18	12.9082	22.86523
27.54186	22	12.9248	22.89355
27.54989	18	12.94043	22.91602
27.55792	28	12.95605	22.93359
27.56595	26	12.97266	22.94531
27.57398	25	12.99316	22.95703
27.58201	28	13.01367	22.96289
27.59004	24	13.03125	22.96191
27.59807	29	13.04883	22.95508
27.6061	19	13.06543	22.94336
27.61413	26	13.08008	22.92383
27.62216	23	13.09277	22.89746
27.63018	25	13.10547	22.86719
27.63821	24	13.12891	22.84277
27.64624	20	13.15137	22.81348
27.65427	21	13.16992	22.77539
27.6623	22	13.18652	22.73145
27.67033	22	13.20313	22.68359
27.67836	18	13.2168	22.62793
27.68639	17	13.22852	22.56836
27.69442	24	13.24121	22.50391
27.70245	21	13.26172	22.44531
27.71048	22	13.28223	22.38281
27.71851	19	13.2998	22.31348
27.72654	18	13.31641	22.24121
27.73457	30	13.33203	22.16406
27.7426	27	13.34668	22.08301
27.75063	18	13.36035	22
27.75866	18	13.37207	21.91113
27.76669	18	13.38281	21.81934
27.77471	21	13.3916	21.72363
27.78274	22	13.39941	21.625
27.79077	14	13.40723	21.52539
27.7988	19	13.42383	21.43164
27.80683	18	13.44043	21.33691
27.81486	23	13.45215	21.23633
27.82289	17	13.46191	21.13184
27.83092	11	13.46973	21.02637
27.83895	26	13.47559	20.91699
27.84698	16	13.47949	20.80469
27.85501	15	13.4834	20.69238
27.86304	11	13.50586	20.59766
27.87107	11	13.52539	20.50098
27.8791	27	13.54004	20.39941
27.88713	16	13.55273	20.29492
27.89515	21	13.56445	20.19043
27.90318	22	13.57617	20.08691
27.91121	21	13.58398	19.97949
27.91924	21	13.5918	19.87305
27.92727	21	13.60938	19.77832
27.9353	14	13.62793	19.68359
27.94333	27	13.64063	19.58594
27.95136	11	13.65137	19.4873
27.95939	15	13.66016	19.38965
27.96742	18	13.66895	19.29297
27.97545	18	13.67676	19.19824
27.98348	16	13.68457	19.10449
27.99151	21	13.68945	19.0127
27.99954	15	13.69238	18.9209
28.00757	19	13.69434	18.83105
28.0156	11	13.69531	18.74512
28.02362	19	13.70605	18.67188
28.03165	11	13.71582	18.60352
28.03968	17	13.71973	18.5332
28.04771	18	13.71973	18.46484
28.05574	18	13.71777	18.40039
28.06377	19	13.71484	18.3418
28.0718	13	13.71094	18.29004
28.07983	23	13.70703	18.24512
28.08786	11	13.72754	18.23438
28.09589	17	13.74609	18.23047
28.10392	17	13.75879	18.22949
28.11195	12	13.7666	18.2373
28.11998	19	13.77539	18.25586
28.12801	16	13.78418	18.28613
28.13604	23	13.78809	18.3252
28.14407	19	13.79199	18.37793
28.1521	19	13.80664	18.45605
28.16012	21	13.82031	18.5498
28.16815	19	13.8291	18.65332
28.17618	28	13.83496	18.77148
28.18421	21	13.83984	18.90527
28.19224	19	13.84375	19.05664
28.20027	11	13.8457	19.22461
28.2083	18	13.84668	19.4082
28.21633	18	13.84668	19.61035
28.22436	18	13.84375	19.8291
28.23239	13	13.84082	20.06543
28.24042	24	13.83691	20.31934
28.24845	18	13.83887	20.59668
28.25648	25	13.83887	20.89063
28.26451	26	13.83398	21.19531
28.27254	18	13.82617	21.51367
28.28057	23	13.81641	21.84473
28.2886	22	13.80469	22.1875
28.29663	28	13.79199	22.54297
28.30465	23	13.7793	22.9082
28.31268	25	13.79785	23.31641
28.32071	28	13.81543	23.72949
28.32874	26	13.8252	24.14258
28.33677	28	13.83203	24.55664
28.3448	20	13.83887	24.97363
28.35283	17	13.8457	25.39063
28.36086	28	13.84766	25.80078
28.36889	22	13.84961	26.20801
28.37692	33	13.85742	26.61426
28.38495	33	13.86328	27.01172
28.39298	26	13.86719	27.39453
28.40101	25	13.86914	27.76367
28.40904	20	13.86914	28.11621
28.41706	31	13.86816	28.44922
28.42509	25	13.86328	28.75879
28.43312	30	13.85645	29.04492
28.44115	31	13.84961	29.30566
28.44918	29	13.84082	29.54004
28.45721	24	13.83301	29.74609
28.46524	21	13.83105	29.92773
28.47327	26	13.82422	30.07227
28.4813	37	13.81641	30.18164
28.48933	31	13.80469	30.25293
28.49736	26	13.79102	30.28613
28.50539	26	13.77734	30.28027
28.51342	33	13.75781	30.23145
28.52145	25	13.73633	30.1416
28.52948	22	13.71387	30.01172
28.53751	18	13.73242	29.88379
28.54554	24	13.75	29.71582
28.55356	29	13.75977	29.50293
28.56159	24	13.76563	29.24805
28.56962	26	13.77148	28.95703
28.57765	20	13.77637	28.63184
28.58568	20	13.7793	28.27148
28.59371	27	13.78125	27.87988
28.60174	16	13.78125	27.45898
28.60977	21	13.78027	27.01172
28.6178	28	13.77734	26.54004
28.62583	25	13.77344	26.04883
28.63386	24	13.76855	25.54004
28.64189	22	13.76172	25.01758
28.64992	15	13.75293	24.4834
28.65795	15	13.74219	23.94141
28.66598	21	13.73145	23.39648
28.67401	16	13.71973	22.85156
28.68204	20	13.70898	22.31055
28.69006	25	13.70117	21.78027
28.69809	17	13.68848	21.25391
28.70612	18	13.67285	20.7373
28.71415	14	13.65527	20.2334
28.72218	17	13.63574	19.74512
28.73021	16	13.61719	19.27441
28.73824	22	13.59082	18.81738
28.74627	17	13.5625	18.37891
28.7543	18	13.5332	17.96289
28.76233	25	13.55176	17.61816
28.77036	16	13.56836	17.29492
28.77839	13	13.5752	16.98633
28.78642	19	13.57617	16.69629
28.79445	10	13.57715	16.43066
28.80247	12	13.58496	16.19531
28.8105	19	13.58789	15.97949
28.81853	11	13.58984	15.78418
28.82656	12	13.58887	15.61035
28.83459	10	13.58789	15.45508
28.84262	17	13.58203	15.31738
28.85065	20	13.5752	15.19727
28.85868	19	13.56641	15.09375
28.86671	13	13.55664	15.00781
28.87474	15	13.54688	14.93652
28.88277	29	13.53516	14.87891
28.8908	15	13.52246	14.83496
28.89883	14	13.50781	14.80176
28.90686	14	13.49121	14.78027
28.91489	14	13.47559	14.76855
28.92292	12	13.45801	14.76563
28.93095	14	13.4375	14.76953
28.93898	12	13.41406	14.77832
28.947	14	13.38867	14.79297
28.95503	15	13.36328	14.81348
28.96306	20	13.33301	14.83496
28.97109	24	13.2998	14.85742
28.97912	16	13.26563	14.88477
28.98715	16	13.28711	14.97168
28.99518	11	13.30664	15.05762
29.00321	14	13.3125	15.13281
29.01124	16	13.31055	15.20215
29.01927	10	13.30957	15.27148
29.0273	16	13.31836	15.35254
29.03533	10	13.32324	15.42969
29.04336	12	13.32422	15.50195
29.05139	17	13.32129	15.56836
29.05942	18	13.31641	15.63086
29.06745	13	13.30762	15.6875
29.07548	14	13.29688	15.74023
29.0835	14	13.28613	15.78809
29.09153	15	13.27344	15.83203
29.09956	13	13.26172	15.87207
29.10759	8	13.24707	15.90527
29.11562	14	13.22949	15.93066
29.12365	15	13.20996	15.9502
29.13168	19	13.19043	15.96289
29.13971	15	13.1709	15.9707
29.14774	8	13.15332	15.97461
29.15577	21	13.13379	15.97168
29.1638	17	13.10938	15.95801
29.17183	16	13.08301	15.93457
29.17986	9	13.05469	15.9043
29.18789	15	13.01855	15.85938
29.19592	20	12.97949	15.80664
29.20395	19	12.94043	15.74707
29.21198	11	12.96875	15.74805
29.22001	16	12.99023	15.7373
29.22803	8	13.00195	15.71191
29.23606	15	13.00879	15.67676
29.24409	13	13.0166	15.63672
29.25212	10	13.02344	15.5918
29.26015	15	13.02637	15.53906
29.26818	11	13.02637	15.47852
29.27621	16	13.02344	15.41406
29.28424	16	13.01855	15.34277
29.29227	11	13.01074	15.26758
29.3003	15	13.00195	15.19043
29.30833	15	12.98926	15.10742
29.31636	21	12.97559	15.02344
29.32439	14	12.96094	14.93848
29.33241	16	12.94336	14.85059
29.34044	9	12.92383	14.7627
29.34847	13	12.90137	14.67285
29.3565	8	12.87793	14.58398
29.36453	13	12.85449	14.49707
29.37256	11	12.83594	14.41895
29.38059	12	12.81641	14.3418
29.38862	19	12.78906	14.26074
29.39665	15	12.75879	14.17969
29.40468	16	12.72559	14.09961
29.41271	17	12.68359	14.01563
29.42074	16	12.63672	13.93066
29.42877	14	12.59082	13.84961
29.4368	17	12.62109	13.84961
29.44483	11	12.64453	13.84766
29.45286	12	12.66504	13.84473
29.46089	18	12.67871	13.84082
29.46892	15	12.69043	13.83887
29.47694	16	12.7002	13.83887
29.48497	13	12.70605	13.83789
29.493	21	12.70898	13.83789
29.50103	14	12.70898	13.83789
29.50906	18	12.70605	13.83887
29.51709	12	12.70215	13.84082
29.52512	9	12.69727	13.8457
29.53315	16	12.69043	13.84961
29.54118	20	12.68066	13.85547
29.54921	23	12.6709	13.86133
29.55724	14	12.6582	13.86719
29.56527	19	12.6416	13.87109
29.5733	18	12.62305	13.87598
29.58133	17	12.60352	13.87988
29.58936	11	12.58105	13.88281
29.59739	15	12.55273	13.88086
29.60542	14	12.52148	13.87695
29.61344	15	12.4873	13.87207
29.62147	19	12.44727	13.86133
29.6295	12	12.4043	13.84863
29.63753	19	12.35449	13.8291
29.64556	10	12.2998	13.80664
29.65359	8	12.24512	13.78516
29.66162	12	12.29102	13.86328
29.66965	14	12.3291	13.93457
29.67768	8	12.36328	14.00195
29.68571	14	12.39258	14.06641
29.69374	9	12.42188	14.12891
29.70177	11	12.44727	14.18848
29.7098	19	12.46973	14.24512
29.71783	14	12.4873	14.29785
29.72585	11	12.50293	14.34766
29.73388	21	12.51563	14.39551
29.74191	18	12.52832	14.44238
29.74994	16	12.53906	14.48828
29.75797	24	12.54492	14.52832
29.766	17	12.54883	14.56641
29.77403	18	12.55078	14.60254
29.78206	13	12.5498	14.63574
29.79009	18	12.54785	14.66699
29.79812	18	12.54199	14.69531
29.80615	15	12.53418	14.7207
29.81418	11	12.52637	14.74609
29.82221	20	12.51953	14.77148
29.83024	23	12.50977	14.79492
29.83827	18	12.49902	14.81543
29.8463	13	12.48438	14.83301
29.85433	12	12.46777	14.84668
29.86236	13	12.44727	14.8584
29.87038	16	12.42676	14.86719
29.87841	14	12.40527	14.875
29.88644	14	12.42773	14.92676
29.89447	15	12.44727	14.97461
29.9025	11	12.46387	15.01953
29.91053	16	12.48047	15.06348
29.91856	13	12.49414	15.10449
29.92659	15	12.50488	15.14063
29.93462	20	12.51367	15.1748
29.94265	21	12.52051	15.20605
29.95068	18	12.52246	15.23145
29.95871	23	12.52148	15.25391
29.96674	14	12.51855	15.27344
29.97477	18	12.51367	15.29004
29.9828	15	12.50879	15.30566
29.99083	9	12.5166	15.33398
29.99886	19	12.52344	15.35938
30.00688	13	12.52539	15.37891
30.01491	21	12.52344	15.39551
30.02294	14	12.52148	15.40918
30.03097	19	12.51367	15.41797
30.039	17	12.50488	15.42285
30.04703	9	12.49609	15.42773
30.05506	18	12.49902	15.44336
30.06309	22	12.5	15.45703
30.07112	11	12.5	15.46777
30.07915	16	12.49805	15.47559
30.08718	12	12.49316	15.47949
30.09521	12	12.48633	15.48145
30.10324	16	12.47852	15.48047
30.11127	15	12.46973	15.47754
30.1193	22	12.46094	15.47363
30.12733	17	12.4502	15.4668
30.13535	17	12.43652	15.45703
30.14338	14	12.42383	15.44629
30.15141	14	12.42773	15.45215
30.15944	15	12.42676	15.45117
30.16747	13	12.41602	15.44043
30.1755	14	12.40234	15.42383
30.18353	11	12.38574	15.40625
30.19156	12	12.35938	15.37598
30.19959	11	12.32813	15.34082
30.20762	28	12.29688	15.30371
30.21565	21	12.32129	15.32227
30.22368	12	12.33691	15.33105
30.23171	19	12.34863	15.33496
30.23974	17	12.34961	15.32715
30.24777	14	12.3457	15.31445
30.25579	22	12.33984	15.29785
30.26382	17	12.33203	15.2793
30.27185	16	12.3252	15.26074
30.27988	19	12.33105	15.25391
30.28791	14	12.33301	15.24121
30.29594	17	12.33203	15.22656
30.30397	14	12.33008	15.20996
30.312	14	12.32422	15.18945
30.32003	13	12.31738	15.16602
30.32806	15	12.30469	15.13574
30.33609	17	12.29004	15.10352
30.34412	9	12.27441	15.07031
30.35215	19	12.26172	15.03809
30.36018	19	12.24316	15.00098
30.36821	16	12.22363	14.96191
30.37624	20	12.22754	14.94531
30.38427	22	12.22559	14.92285
30.3923	18	12.21875	14.89355
30.40032	15	12.19922	14.85254
30.40835	15	12.17383	14.80469
30.41638	20	12.14355	14.75195
30.42441	16	12.11133	14.69629
30.43244	12	12.0791	14.64063
30.44047	16	12.09863	14.63574
30.4485	11	12.1123	14.625
30.45653	18	12.12207	14.61035
30.46456	17	12.12598	14.58984
30.47259	20	12.12793	14.56641
30.48062	13	12.12891	14.54102
30.48865	16	12.12891	14.51563
30.49668	7	12.12793	14.48926
30.50471	16	12.12598	14.46094
30.51274	14	12.12402	14.43359
30.52077	14	12.12207	14.40527
30.5288	17	12.11914	14.375
30.53682	8	12.1123	14.3418
30.54485	14	12.10449	14.30664
30.55288	19	12.09277	14.26758
30.56091	10	12.07813	14.22656
30.56894	13	12.0625	14.18359
30.57697	12	12.04395	14.1377
30.585	18	12.02246	14.08887
30.59303	13	12.00098	14.04102
30.60106	12	12.00293	14.01563
30.60909	13	11.99609	13.98145
30.61712	12	11.98535	13.94336
30.62515	13	11.96582	13.89746
30.63318	15	11.94238	13.84668
30.64121	8	11.91699	13.79395
30.64923	6	11.89063	13.74121
30.65726	11	11.86426	13.6875
30.66529	14	11.86914	13.66602
30.67332	13	11.89551	13.66602
30.68135	12	11.92188	13.66504
30.68938	11	11.94043	13.6582
30.69741	16	11.95605	13.64648
30.70544	11	11.9707	13.63574
30.71347	21	11.98242	13.62207
30.7215	15	11.99023	13.60352
30.72953	12	11.99902	13.58691
30.73756	13	12.00586	13.56738
30.74559	12	12.01074	13.54785
30.75362	17	12.01465	13.52637
30.76165	19	12.01758	13.50488
30.76968	18	12.01855	13.48047
30.77771	19	12.01855	13.45703
30.78573	11	12.01465	13.42871
30.79376	15	12.00879	13.39844
30.80179	11	12.00195	13.36816
30.80982	17	11.99414	13.33691
30.81785	11	11.98633	13.30664
30.82588	15	11.99316	13.29102
30.83391	12	11.99414	13.26953
30.84194	13	11.99316	13.24609
30.84997	16	11.98633	13.21777
30.858	8	11.97754	13.1875
30.86603	12	11.9668	13.15723
30.87406	17	11.95605	13.12598
30.88209	8	11.94531	13.0957
30.89012	14	11.94434	13.07617
30.89815	12	11.96094	13.07422
30.90618	9	11.97656	13.07227
30.91421	17	11.98828	13.06738
30.92224	10	11.99805	13.06152
30.93026	9	12.00781	13.05762
30.93829	14	12.0166	13.05273
30.94632	17	12.02246	13.04785
30.95435	18	12.0293	13.04297
30.96238	14	12.03223	13.03809
30.97041	14	12.03418	13.0332
30.97844	14	12.03613	13.03027
30.98647	13	12.03809	13.0293
30.9945	15	12.03809	13.0293
31.00253	12	12.03711	13.03027
31.01056	13	12.03516	13.03418
31.01859	12	12.03223	13.03906
31.02662	11	12.0293	13.04785
31.03465	11	12.02539	13.05957
31.04268	17	12.02246	13.07422
31.0507	21	12.02246	13.09766
31.05873	10	12.02051	13.12305
31.06676	18	12.01758	13.15137
31.07479	11	12.0127	13.18164
31.08282	10	12.00586	13.21582
31.09085	15	12	13.25391
31.09888	19	11.99414	13.29785
31.10691	17	11.9873	13.3457
31.11494	17	11.98047	13.39844
31.12297	11	11.99023	13.47266
31.131	12	11.99902	13.55078
31.13903	8	12.00391	13.62891
31.14706	13	12.00586	13.70898
31.15509	13	12.00879	13.79297
31.16312	18	12.01465	13.88379
31.17115	14	12.01953	13.97559
31.17917	15	12.02246	14.06934
31.1872	14	12.02441	14.16406
31.19523	12	12.02441	14.25684
31.20326	12	12.02344	14.34961
31.21129	20	12.02051	14.44141
31.21932	13	12.01758	14.53223
31.22735	10	12.01465	14.62012
31.23538	11	12.01172	14.70508
31.24341	11	12.00684	14.78613
31.25144	10	12.00195	14.8623
31.25947	12	11.99512	14.93164
31.2675	17	11.98926	14.99512
31.27553	13	11.97754	15.04785
31.28356	8	11.96387	15.08984
31.29159	20	11.9502	15.125
31.29962	17	11.95605	15.1709
31.30765	13	11.95605	15.20215
31.31567	19	11.95703	15.22461
31.3237	18	11.96191	15.24121
31.33173	14	11.96289	15.24414
31.33976	9	11.96191	15.23438
31.34779	8	11.95801	15.21289
31.35582	17	11.95508	15.18262
31.36385	18	11.95898	15.14844
31.37188	11	11.96094	15.10352
31.37991	9	11.96289	15.0498
31.38794	15	11.96387	14.9873
31.39597	10	11.96484	14.91602
31.404	16	11.96387	14.83594
31.41203	13	11.96191	14.74902
31.42006	16	11.95898	14.65527
31.42809	18	11.95508	14.55566
31.43612	10	11.95117	14.45215
31.44415	13	11.94629	14.34473
31.45218	11	11.94141	14.23535
31.4602	7	11.93652	14.12402
31.46823	11	11.92969	14.01074
31.47626	18	11.92188	13.89746
31.48429	9	11.91406	13.78418
31.49232	16	11.9043	13.6709
31.50035	14	11.88965	13.55566
31.50838	14	11.87305	13.44043
31.51641	12	11.85645	13.3291
31.52444	13	11.86523	13.24707
31.53247	13	11.87012	13.16504
31.5405	9	11.875	13.08789
31.54853	15	11.87598	13.01172
31.55656	8	11.875	12.93848
31.56459	12	11.86914	12.86621
31.57261	17	11.8623	12.79785
31.58064	18	11.85547	12.73535
31.58867	18	11.86035	12.68848
31.5967	18	11.8623	12.64551
31.60473	8	11.86426	12.60645
31.61276	15	11.86426	12.57031
31.62079	10	11.8623	12.53809
31.62882	10	11.85938	12.50879
31.63685	17	11.85547	12.4834
31.64488	18	11.85059	12.46094
31.65291	11	11.84473	12.44238
31.66094	11	11.83789	12.4248
31.66897	19	11.83008	12.41113
31.677	7	11.82227	12.40039
31.68503	13	11.81934	12.39746
31.69306	13	11.81348	12.39453
31.70109	13	11.80566	12.3916
31.70911	19	11.79688	12.39063
31.71714	15	11.78711	12.39063
31.72517	17	11.77344	12.38867
31.7332	16	11.75781	12.38574
31.74123	14	11.74121	12.38379
31.74926	17	11.74805	12.40625
31.75729	19	11.75293	12.42676
31.76532	16	11.75293	12.44434
31.77335	16	11.75098	12.46094
31.78138	12	11.74805	12.47559
31.78941	12	11.74219	12.4873
31.79744	16	11.73535	12.49902
31.80547	12	11.72754	12.50977
31.8135	11	11.72656	12.52637
31.82153	8	11.72461	12.54102
31.82956	14	11.7207	12.55371
31.83759	23	11.7168	12.56445
31.84561	15	11.71191	12.57422
31.85364	18	11.70508	12.58203
31.86167	12	11.69824	12.58691
31.8697	14	11.69238	12.59082
31.87773	15	11.68555	12.59277
31.88576	9	11.67773	12.59277
31.89379	10	11.66992	12.59082
31.90182	15	11.66113	12.58594
31.90985	15	11.65332	12.5791
31.91788	12	11.64453	12.57031
31.92591	12	11.63574	12.55957
31.93394	13	11.62598	12.5459
31.94197	10	11.61621	12.53027
31.95	17	11.61035	12.51465
31.95802	8	11.60156	12.49707
31.96605	17	11.59082	12.47363
31.97408	15	11.5791	12.44727
31.98211	7	11.56641	12.41895
31.99014	11	11.55664	12.3916
31.99817	15	11.54199	12.3584
32.0062	15	11.52832	12.32324
32.01423	16	11.51953	12.29297
32.02226	9	11.50977	12.25977
32.03029	11	11.49219	12.21777
32.03832	14	11.46973	12.16992
32.04635	14	11.44824	12.12109
32.05438	20	11.45215	12.09863
32.06241	17	11.45215	12.07031
32.07044	26	11.44434	12.03516
32.07847	12	11.43262	11.99512
32.08649	11	11.4209	11.95508
32.09452	15	11.41406	11.91992
32.10255	15	11.40625	11.88379
32.11058	11	11.39844	11.84766
32.11861	18	11.38965	11.81152
32.12664	18	11.37891	11.77441
32.13467	11	11.36816	11.7373
32.1427	12	11.35645	11.70117
32.15073	19	11.34668	11.66602
32.15876	21	11.33496	11.62988
32.16679	10	11.32227	11.59473
32.17482	11	11.31445	11.56543
32.18285	15	11.30469	11.53516
32.19088	13	11.28906	11.5
32.19891	12	11.26953	11.46191
32.20694	16	11.25	11.4248
32.21497	22	11.23926	11.39844
32.223	11	11.22168	11.36523
32.23103	8	11.2041	11.33301
32.23906	10	11.18945	11.30566
32.24709	12	11.1748	11.27832
32.25511	16	11.14453	11.2373
32.26314	15	11.10645	11.18945
32.27117	6	11.06934	11.14258
32.2792	13	11.08887	11.15332
32.28723	23	11.10156	11.15918
32.29526	21	11.09863	11.14941
32.30329	12	11.08887	11.13281
32.31132	17	11.07813	11.11719
32.31935	11	11.07422	11.1084
32.32738	11	11.06445	11.09473
32.33541	9	11.05469	11.08105
32.34344	13	11.05469	11.07617
32.35147	13	11.05371	11.07227
32.3595	13	11.04785	11.06445
32.36752	12	11.04004	11.05371
32.37555	12	11.02734	11.04004
32.38358	19	11.01367	11.02441
32.39161	20	11	11.00879
32.39964	8	10.99121	10.99902
32.40767	14	10.98145	10.9873
32.4157	12	10.96094	10.9668
32.42373	12	10.93652	10.94141
32.43176	15	10.91211	10.91699
32.43979	10	10.90137	10.9043
32.44782	10	10.88281	10.88574
32.45585	14	10.86328	10.86523
32.46388	12	10.8418	10.84375
32.47191	18	10.82129	10.82324
32.47993	11	10.7832	10.78516
32.48796	13	10.73438	10.73633
32.49599	10	10.68652	10.6875
32.50402	13	10.71875	10.71973
32.51205	9	10.74219	10.74316
32.52008	12	10.74609	10.74707
32.52811	14	10.74023	10.74121
32.53614	10	10.73438	10.73535
32.54417	11	10.73633	10.7373
32.5522	11	10.73145	10.73242
32.56023	8	10.72656	10.72754
32.56826	6	10.72949	10.72949
32.57629	14	10.73145	10.73242
32.58432	11	10.72852	10.72852
32.59235	9	10.72168	10.72168
32.60038	9	10.70898	10.70898
32.60841	23	10.69336	10.69336
32.61644	11	10.67773	10.67773
32.62447	12	10.67188	10.67285
32.6325	8	10.66406	10.66406
32.64052	14	10.64063	10.64063
32.64855	9	10.60938	10.60938
32.65658	11	10.57715	10.57715
32.66461	12	10.57129	10.57129
32.67264	12	10.55762	10.55762
32.68067	14	10.53516	10.53613
32.6887	9	10.50977	10.50977
32.69673	7	10.4834	10.4834
32.70476	12	10.43555	10.43555
32.71279	13	10.37207	10.37207
32.72082	6	10.30957	10.30957
32.72885	9	10.48438	10.48438
32.73688	13	10.65918	10.65918
32.74491	11	10.83496	10.83496
32.75293	15	11.01367	11.01367
32.76096	14	11.18945	11.18945
32.76899	13	11.36426	11.36426
32.77702	7	11.53125	11.53125
32.78505	9	11.69629	11.69629
32.79308	15	11.8623	11.8623
32.80111	10	12.03516	12.03516
32.80914	15	12.19727	12.19727
32.81717	14	12.36133	12.36133
32.8252	16	12.54004	12.54004
32.83323	13	12.7207	12.7207
32.84126	11	12.88379	12.88379
32.84929	14	13.00586	13.00586
32.85732	18	13.12891	13.12891
32.86535	0	0	0
