SampleIdent               : oreas 25a
TimeMeasured              : 16/08/2017 12:17:07
Application               : <Omnian>
ConditionSet              : Omnian
Instrument                : Epsilon1
InstrumentSerial          : 672 (M-672)
TubeAnode                 : Ag 50
Detector                  : SDD5
kV                        : 50.000
mA                        : 0.100
uA                        : 100
Filter                    : Ag 100
Medium                    : Air
PeakingTimeNr             : 3
ZeroReference             : -0.006660745945
GainReference             : 0.008007249795
NoiseReference            : 0.071620985866
FanoReference             : 0.127556249499
ZeroInit                  : -0.006602666806
GainInit                  : 0.008007533848
NoiseInit                 : 0.073252178729
FanoInit                  : 0.128453314304
ZeroFit                   : -0.011695506983
GainFit                   : 0.008025599644
NoiseFit                  : 0.068348698318
FanoFit                   : 0.138704299927
NormFactor                : 1.001468539238
NormRefCounts             : 66115.265625000000
NormCurCounts             : 66018.312500000000
ROI-Fit (chan)            : 250
ROI-Fit (chan)            : 4094
Chi-square                : 1.471721053123
RefPressure               : 974.60
RefTemp                   : 29.300
MeasPressure              : 1005.34
MeasTemp                  : 31.200
Delta_hPa                 : 24.120397567749
HeliumFlow                : 0.00
LiveTime                  : 8.532597600000
TrueTime                  : 12.000492000000
FastChanLiveT             : 9.972205000000
FastChanDeadT             : 2.028287000000
DeadTime                  : 3.467894400000
DeadTimePct               : 28.898
FastChanCounts            : 717400
OutputCounts              : 616314
UnderflowCounts           : 0
OverflowCounts            : -16753
TotalCounts               : 633067
NrOfChannels              : 4096
Energy (keV)	Counts	Background	Fit
-1.169551E-02	0	0	0
-3.669907E-03	0	0	0
4.355692E-03	1	0	0
1.238129E-02	0	0	0
2.040689E-02	1	0	0
2.843249E-02	1	0	0
3.645809E-02	0	0	0
4.448369E-02	0	0	0
5.250929E-02	0	0	0
6.053489E-02	0	0	0
6.856049E-02	0	0	0
7.658609E-02	0	0	0
8.461169E-02	0	0	0
9.263729E-02	0	0	0
0.1006629	0	0	0
0.1086885	0	0	0
0.1167141	0	0	0
0.1247397	0	0	0
0.1327653	0	0	0
0.1407909	0	0	0
0.1488165	0	0	0
0.1568421	0	0	0
0.1648677	0	0	0
0.1728933	0	0	0
0.1809189	0	0	0
0.1889445	0	0	0
0.1969701	0	0	0
0.2049957	0	0	0
0.2130213	0	0	0
0.2210469	0	0	0
0.2290725	0	0	0
0.2370981	0	0	0
0.2451237	0	0	0
0.2531493	0	0	0
0.2611749	0	0	0
0.2692005	0	0	0
0.2772261	0	0	0
0.2852517	0	0	0
0.2932773	0	0	0
0.3013029	0	0	0
0.3093285	0	0	0
0.3173541	0	0	0
0.3253797	0	0	0
0.3334053	0	0	0
0.3414309	0	0	0
0.3494565	0	0	0
0.3574821	0	0	0
0.3655077	0	0	0
0.3735333	0	0	0
0.3815589	0	0	0
0.3895845	0	0	0
0.3976101	0	0	0
0.4056357	0	0	0
0.4136613	0	0	0
0.4216869	0	0	0
0.4297125	0	0	0
0.4377381	0	0	0
0.4457637	0	0	0
0.4537893	0	0	0
0.4618149	0	0	0
0.4698405	0	0	0
0.4778661	0	0	0
0.4858917	0	0	0
0.4939173	0	0	0
0.5019429	0	0	0
0.5099685	0	0	0
0.517994	0	0	0
0.5260197	0	0	0
0.5340453	0	0	0
0.5420709	0	0	0
0.5500965	0	0	0
0.558122	0	0	0
0.5661477	0	0	0
0.5741733	1	0	0
0.5821989	2	0	0
0.5902244	1	0	0
0.5982501	3	0	0
0.6062757	2	0	0
0.6143013	0	0	0
0.6223269	0	0	0
0.6303524	3	0	0
0.6383781	2	0	0
0.6464037	2	0	0
0.6544293	4	0	0
0.6624548	3	0	0
0.6704805	17	0	0
0.6785061	6	0	0
0.6865317	10	0	0
0.6945572	7	0	0
0.7025828	12	0	0
0.7106085	13	0	0
0.7186341	18	0	0
0.7266597	19	0	0
0.7346852	17	0	0
0.7427109	19	0	0
0.7507365	34	0	0
0.7587621	27	0	0
0.7667876	26	0	0
0.7748132	23	0	0
0.7828389	32	0	0
0.7908645	38	0	0
0.7988901	27	0	0
0.8069156	30	0	0
0.8149412	47	0	0
0.8229669	46	0	0
0.8309925	39	0	0
0.839018	46	0	0
0.8470436	38	0	0
0.8550693	41	0	0
0.8630949	37	0	0
0.8711205	56	0	0
0.879146	48	0	0
0.8871716	63	0	0
0.8951973	38	0	0
0.9032229	50	0	0
0.9112484	40	0	0
0.919274	55	0	0
0.9272997	54	0	0
0.9353253	42	0	0
0.9433509	49	0	0
0.9513764	46	0	0
0.959402	52	0	0
0.9674277	52	0	0
0.9754533	51	0	0
0.9834788	57	0	0
0.9915044	46	0	0
0.9995301	59	0	0
1.007556	50	0	0
1.015581	48	0	0
1.023607	42	0	0
1.031632	47	0	0
1.039658	50	0	0
1.047684	55	0	0
1.055709	51	0	0
1.063735	46	0	0
1.07176	44	0	0
1.079786	45	0	0
1.087812	40	0	0
1.095837	37	0	0
1.103863	50	0	0
1.111888	39	0	0
1.119914	41	0	0
1.12794	42	0	0
1.135965	44	0	0
1.143991	44	0	0
1.152016	49	0	0
1.160042	45	0	0
1.168068	41	0	0
1.176093	40	0	0
1.184119	50	0	0
1.192144	47	0	0
1.20017	58	0	0
1.208196	44	0	0
1.216221	50	0	0
1.224247	34	0	0
1.232272	49	0	0
1.240298	48	0	0
1.248324	57	0	0
1.256349	51	0	0
1.264375	44	0	0
1.2724	52	0	0
1.280426	48	0	0
1.288452	40	0	0
1.296477	42	0	0
1.304503	40	0	0
1.312528	51	0	0
1.320554	43	0	0
1.32858	51	0	0
1.336605	37	0	0
1.344631	41	0	0
1.352656	41	0	0
1.360682	48	0	0
1.368708	43	0	0
1.376733	45	0	0
1.384759	42	0	0
1.392784	49	0	0
1.40081	36	0	0
1.408836	52	0	0
1.416861	45	0	0
1.424887	42	0	0
1.432912	48	0	0
1.440938	57	0	0
1.448964	41	0	0
1.456989	51	0	0
1.465015	33	0	0
1.47304	44	0	0
1.481066	49	0	0
1.489092	41	0	0
1.497117	44	0	0
1.505143	60	0	0
1.513168	47	0	0
1.521194	52	0	0
1.52922	51	0	0
1.537245	52	0	0
1.545271	46	0	0
1.553296	52	0	0
1.561322	57	0	0
1.569348	57	0	0
1.577373	47	0	0
1.585399	37	0	0
1.593424	44	0	0
1.60145	38	0	0
1.609476	52	0	0
1.617501	48	0	0
1.625527	38	0	0
1.633552	40	0	0
1.641578	40	0	0
1.649604	40	0	0
1.657629	53	0	0
1.665655	45	0	0
1.67368	48	0	0
1.681706	41	0	0
1.689732	49	0	0
1.697757	52	0	0
1.705783	54	0	0
1.713808	51	0	0
1.721834	66	0	0
1.72986	64	0	0
1.737885	60	0	0
1.745911	47	0	0
1.753936	54	0	0
1.761962	57	0	0
1.769988	53	0	0
1.778013	36	0	0
1.786039	56	0	0
1.794064	45	0	0
1.80209	37	0	0
1.810116	31	0	0
1.818141	34	0	0
1.826167	23	0	0
1.834192	46	0	0
1.842218	43	0	0
1.850244	37	0	0
1.858269	35	0	0
1.866295	39	0	0
1.87432	18	0	0
1.882346	43	0	0
1.890372	32	0	0
1.898397	37	0	0
1.906423	33	0	0
1.914448	41	0	0
1.922474	40	0	0
1.9305	25	0	0
1.938525	30	0	0
1.946551	37	0	0
1.954576	23	0	0
1.962602	25	0	0
1.970628	30	0	0
1.978653	25	0	0
1.986679	22	0	0
1.994704	38	26.55762	34.69238
2.00273	23	26.22949	30.15527
2.010756	31	25.90332	27.76465
2.018781	27	25.58008	26.46387
2.026807	31	25.25781	25.69922
2.034832	25	25.10547	25.36133
2.042858	30	24.94629	25.14648
2.050884	10	24.7627	24.95801
2.058909	28	24.56641	24.84082
2.066935	26	24.37109	24.76465
2.07496	18	24.20996	24.77051
2.082986	20	24.04297	24.82813
2.091012	27	23.86523	24.9375
2.099037	32	23.68262	25.10352
2.107063	29	23.50098	25.3291
2.115088	29	23.31738	25.59766
2.123114	21	23.13086	25.88867
2.13114	26	22.94531	26.17969
2.139165	24	22.75391	26.43262
2.147191	23	22.55664	26.62109
2.155216	31	22.35645	26.71973
2.163242	22	22.1543	26.71484
2.171268	20	21.9541	26.60156
2.179293	25	21.74707	26.37988
2.187319	27	21.53711	26.06836
2.195344	27	21.32715	25.69336
2.20337	29	21.14844	25.31348
2.211396	20	20.96191	24.91211
2.219421	23	20.77637	24.5166
2.227447	26	20.59375	24.14063
2.235472	37	20.41016	23.78125
2.243498	30	20.22266	23.42969
2.251523	28	20.03027	23.0752
2.259549	28	19.83594	22.71191
2.267575	22	19.62891	22.32031
2.2756	27	19.41602	21.90332
2.283626	21	19.2041	21.46875
2.291651	20	18.99512	21.02441
2.299677	14	18.78418	20.57324
2.307703	22	18.56445	20.11914
2.315728	18	18.33691	19.67188
2.323754	17	18.10742	19.24316
2.331779	19	17.8623	18.82324
2.339805	19	17.61035	18.42383
2.347831	15	17.36035	18.0498
2.355856	20	17.38184	17.96875
2.363882	12	17.38965	17.89355
2.371907	16	17.37109	17.80469
2.379933	21	17.33887	17.71484
2.387959	28	17.30566	17.63379
2.395984	16	17.28906	17.5752
2.40401	17	17.26953	17.51953
2.412036	15	17.24414	17.46582
2.420061	17	17.20703	17.40332
2.428087	21	17.16406	17.33887
2.436112	18	17.11426	17.27246
2.444138	21	17.06152	17.20605
2.452164	21	17.00781	17.13965
2.460189	14	16.95313	17.07422
2.468215	16	16.89844	17.00977
2.47624	13	16.83301	16.93457
2.484266	16	16.75781	16.85059
2.492292	16	16.68359	16.76855
2.500317	13	16.69727	16.77637
2.508343	26	16.70117	16.77637
2.516368	18	16.69531	16.77246
2.524394	17	16.67285	16.75586
2.53242	11	16.64258	16.7373
2.540445	25	16.60449	16.72168
2.548471	14	16.56445	16.71094
2.556496	14	16.52441	16.71094
2.564522	19	16.51465	16.75
2.572548	20	16.50391	16.79883
2.580573	18	16.49023	16.84863
2.588599	16	16.46973	16.89844
2.596624	19	16.44238	16.94141
2.60465	19	16.41211	16.97852
2.612676	15	16.37695	17.00781
2.620701	18	16.33789	17.02441
2.628727	11	16.2959	17.03125
2.636752	21	16.24805	17.02637
2.644778	20	16.19531	17.01465
2.652804	18	16.14355	17.00586
2.660829	12	16.13281	17.04883
2.668855	17	16.11621	17.10352
2.67688	11	16.08398	17.16797
2.684906	19	16.04004	17.25
2.692932	19	15.99023	17.3584
2.700957	17	15.93164	17.48633
2.708983	22	15.86816	17.63281
2.717008	17	15.80566	17.79199
2.725034	16	15.81348	18.02051
2.73306	24	15.81055	18.21875
2.741085	19	15.7998	18.375
2.749111	23	15.77539	18.46875
2.757136	15	15.74609	18.49609
2.765162	19	15.71191	18.4541
2.773188	23	15.67578	18.3457
2.781213	22	15.63965	18.17969
2.789239	19	15.62305	17.98633
2.797264	20	15.60645	17.76465
2.80529	12	15.58789	17.53223
2.813316	26	15.56641	17.31445
2.821341	13	15.53613	17.12598
2.829367	11	15.50098	17.00195
2.837392	18	15.46387	16.96973
2.845418	11	15.4248	17.06445
2.853444	20	15.38574	17.31738
2.861469	21	15.33789	17.75391
2.869495	9	15.28613	18.41309
2.87752	13	15.23438	19.32617
2.885546	20	15.2168	20.54883
2.893572	22	15.19336	22.0498
2.901597	18	15.16016	23.81543
2.909623	21	15.11426	25.80957
2.917648	35	15.06152	27.97754
2.925674	31	15.00195	30.23633
2.9337	39	14.94043	32.48047
2.941725	38	14.87891	34.58887
2.949751	34	14.88184	36.49316
2.957776	42	14.87207	37.99316
2.965802	47	14.85547	38.99219
2.973828	47	14.83008	39.41406
2.981853	30	14.80176	39.2334
2.989879	43	14.76953	38.46484
2.997904	39	14.7373	37.16797
3.00593	35	14.70508	35.44141
3.013956	26	14.68164	33.41895
3.021981	30	14.65625	31.22949
3.030007	24	14.62988	29.01758
3.038032	33	14.60352	26.91602
3.046058	24	14.57227	25.03027
3.054084	23	14.53906	23.44922
3.062109	22	14.5	22.22168
3.070135	19	14.45898	21.37402
3.07816	24	14.41797	20.90234
3.086186	19	14.37695	20.77637
3.094212	23	14.33301	20.93945
3.102237	23	14.28809	21.3291
3.110263	23	14.25684	21.88477
3.118288	17	14.22168	22.50586
3.126314	25	14.18262	23.11816
3.13434	22	14.13184	23.64648
3.142365	29	14.07617	24.04199
3.150391	23	14.01758	24.27148
3.158416	26	13.95801	24.32422
3.166442	21	13.89746	24.21094
3.174468	25	13.88867	24.01465
3.182493	23	13.87012	23.72949
3.190519	34	13.84766	23.42578
3.198544	20	13.81641	23.18066
3.20657	17	13.78223	23.07617
3.214596	21	13.74805	23.19043
3.222621	26	13.71387	23.58398
3.230647	29	13.6748	24.29004
3.238672	25	13.63574	25.32715
3.246698	32	13.61621	26.69824
3.254724	33	13.59375	28.32813
3.262749	29	13.56445	30.13281
3.270775	36	13.53125	32.00586
3.2788	32	13.49805	33.8252
3.286826	32	13.45801	35.45117
3.294852	27	13.41602	36.75879
3.302877	45	13.37402	37.64063
3.310903	30	13.33398	38.01953
3.318928	36	13.29492	37.84961
3.326954	49	13.25488	37.13086
3.33498	46	13.21484	35.90625
3.343005	46	13.1709	34.24707
3.351031	28	13.12598	32.26172
3.359056	26	13.07617	30.06641
3.367082	21	13.02441	27.78418
3.375108	34	12.97266	25.53027
3.383133	23	12.91992	23.40039
3.391159	22	12.86523	21.4668
3.399184	22	12.81055	19.78027
3.40721	19	12.79395	18.40234
3.415236	16	12.77539	17.29492
3.423261	25	12.74219	16.43164
3.431287	24	12.70215	15.79297
3.439312	13	12.66309	15.35254
3.447338	14	12.63086	15.08203
3.455364	15	12.58691	14.92773
3.463389	9	12.54297	14.86816
3.471415	18	12.52734	14.90723
3.47944	17	12.50586	14.98828
3.487466	13	12.47656	15.0957
3.495492	18	12.44238	15.22168
3.503517	18	12.4043	15.36523
3.511543	13	12.36328	15.52734
3.519568	17	12.32129	15.71191
3.527594	17	12.27734	15.92969
3.535619	16	12.23438	16.18848
3.543645	17	12.18848	16.50293
3.551671	11	12.14063	16.88867
3.559696	16	12.09277	17.36914
3.567722	21	12.04492	17.9668
3.575747	14	11.99707	18.71094
3.583773	18	11.94727	19.625
3.591799	23	11.8916	20.73242
3.599824	24	11.83594	22.05859
3.60785	25	11.79297	23.62402
3.615875	21	11.74316	25.40234
3.623901	15	11.68848	27.36328
3.631927	28	11.62988	29.45703
3.639952	31	11.57227	31.60742
3.647978	40	11.55859	33.75684
3.656003	32	11.53125	35.73242
3.664029	30	11.50293	37.42773
3.672055	36	11.48438	38.73438
3.68008	43	11.45898	39.54102
3.688106	43	11.43457	39.7832
3.696131	42	11.41309	39.43652
3.704157	43	11.38867	38.49902
3.712183	44	11.35645	37.01953
3.720208	36	11.32129	35.08301
3.728234	37	11.28223	32.80176
3.736259	30	11.24121	30.30078
3.744285	28	11.19824	27.7041
3.752311	21	11.15332	25.13086
3.760336	24	11.1084	22.68164
3.768362	19	11.06055	20.43164
3.776387	13	11.0127	18.43066
3.784413	15	10.95801	16.70117
3.792439	22	10.90039	15.24902
3.800464	16	10.84375	14.06348
3.80849	16	10.79199	13.12598
3.816515	10	10.73145	12.3877
3.824541	16	10.6709	11.8252
3.832567	13	10.62891	11.42285
3.840592	10	10.5791	11.12402
3.848618	9	10.50977	10.8916
3.856643	16	10.43066	10.7168
3.864669	8	10.35156	10.5957
3.872695	11	10.36035	10.60645
3.88072	11	10.35254	10.6377
3.888746	15	10.34473	10.70703
3.896771	10	10.33887	10.81641
3.904797	11	10.3291	10.96094
3.912823	15	10.30762	11.13379
3.920848	11	10.28027	11.34473
3.928874	19	10.25293	11.5957
3.936899	8	10.22559	11.88574
3.944925	11	10.19531	12.20605
3.952951	21	10.16016	12.54199
3.960976	13	10.12207	12.88477
3.969002	15	10.08008	13.21582
3.977027	14	10.03613	13.52051
3.985053	13	9.992188	13.78125
3.993079	8	9.947266	13.97949
4.001104	24	9.901367	14.10156
4.00913	10	9.841797	14.12598
4.017156	15	9.776367	14.05371
4.025181	23	9.711914	13.89355
4.033207	14	9.665039	13.66895
4.041232	17	9.603516	13.36035
4.049258	17	9.542969	12.99707
4.057283	12	9.499023	12.61426
4.065309	16	9.447266	12.2041
4.073335	16	9.366211	11.76563
4.08136	16	9.272461	11.32715
4.089386	15	9.178711	10.91504
4.097412	6	9.208008	10.65918
4.105437	13	9.21875	10.42285
4.113463	10	9.227539	10.22363
4.121488	12	9.225586	10.05078
4.129514	12	9.21875	9.905273
4.137539	12	9.195313	9.772461
4.145565	10	9.164063	9.654297
4.153591	12	9.132813	9.553711
4.161616	9	9.119141	9.484375
4.169642	13	9.103516	9.421875
4.177668	8	9.076172	9.353516
4.185693	13	9.042969	9.285156
4.193719	10	9.004883	9.214844
4.201744	10	8.964844	9.144531
4.20977	9	8.924805	9.076172
4.217795	16	8.881836	9.008789
4.225821	10	8.837891	8.943359
4.233847	15	8.772461	8.860352
4.241872	6	8.697266	8.770508
4.249898	8	8.623047	8.686523
4.257924	12	8.59082	8.652344
4.265949	7	8.53418	8.602539
4.273975	15	8.476563	8.568359
4.282	15	8.43457	8.573242
4.290026	12	8.381836	8.604492
4.298051	8	8.291992	8.658203
4.306077	8	8.183594	8.78418
4.314103	11	8.076172	9.048828
4.322128	13	8.166992	9.71582
4.330154	15	8.233398	10.65723
4.33818	20	8.267578	11.98535
4.346205	14	8.28418	13.87988
4.354231	16	8.301758	16.55762
4.362257	24	8.3125	20.25586
4.370282	26	8.300781	25.24121
4.378307	28	8.290039	31.84668
4.386333	36	8.326172	40.44434
4.394359	57	8.354492	51.28711
4.402384	68	8.356445	64.62305
4.41041	77	8.344727	80.64355
4.418436	89	8.333984	99.41406
4.426461	131	8.358398	120.8564
4.434487	132	8.380859	144.6152
4.442513	188	8.384766	170.1406
4.450538	188	8.379883	196.6846
4.458563	210	8.370117	223.3047
4.466589	258	8.355469	248.9033
4.474615	245	8.338867	272.3125
4.48264	314	8.311523	292.3701
4.490666	336	8.279297	308.0361
4.498692	350	8.24707	318.4775
4.506717	306	8.250977	323.1787
4.514743	286	8.241211	321.877
4.522768	329	8.208008	314.7148
4.530794	284	8.163086	302.2021
4.538819	296	8.118164	285.1514
4.546845	256	8.134766	264.6504
4.554871	258	8.117188	241.7568
4.562896	207	8.100586	217.6904
4.570922	197	8.094727	193.5781
4.578948	166	8.082031	170.3701
4.586973	146	8.037109	148.8018
4.594999	140	7.975586	129.4141
4.603024	115	7.914063	112.5068
4.61105	92	7.927734	98.21777
4.619075	92	7.919922	86.32422
4.627101	88	7.880859	76.55859
4.635127	74	7.825195	68.59375
4.643152	64	7.770508	62.06836
4.651178	58	7.762695	56.66309
4.659204	67	7.737305	51.9873
4.667229	66	7.704102	47.78516
4.675255	57	7.666016	43.87109
4.68328	38	7.628906	40.12402
4.691306	59	7.602539	36.49902
4.699331	31	7.552734	32.95117
4.707357	42	7.503906	29.53125
4.715383	23	7.505859	26.33887
4.723408	32	7.500977	23.36719
4.731434	29	7.448242	20.63281
4.73946	15	7.373047	18.2041
4.747485	20	7.298828	16.14063
4.755511	20	7.320313	14.5625
4.763536	24	7.321289	13.37109
4.771562	32	7.297852	12.57422
4.779587	20	7.251953	12.1875
4.787613	21	7.195313	12.23828
4.795639	17	7.125977	12.74512
4.803664	20	7.050781	13.74023
4.81169	17	6.975586	15.26074
4.819715	23	6.977539	17.41113
4.827741	28	6.975586	20.13184
4.835767	26	6.951172	23.41309
4.843792	26	6.915039	27.25488
4.851818	38	6.879883	31.625
4.859843	36	6.875	36.47949
4.867869	39	6.870117	41.67383
4.875895	57	6.835938	47.02832
4.88392	51	6.789063	52.37109
4.891946	58	6.735352	57.50098
4.899971	57	6.677734	62.19727
4.907997	65	6.620117	66.24219
4.916023	63	6.556641	69.42676
4.924048	87	6.467773	71.56836
4.932074	88	6.380859	72.57227
4.940099	75	6.363281	72.4502
4.948125	63	6.336914	71.12988
4.956151	55	6.242188	68.62012
4.964176	67	6.115234	65.08594
4.972202	64	5.989258	60.73535
4.980227	48	5.989258	55.89746
4.988253	55	5.960938	50.64063
4.996279	44	5.894531	45.17383
5.004304	37	5.797852	39.70898
5.01233	34	5.688477	34.43848
5.020356	26	5.560547	29.49707
5.028381	23	5.423828	24.99512
5.036407	27	5.290039	21.00488
5.044432	16	5.325195	17.71777
5.052458	19	5.354492	14.95215
5.060483	14	5.369141	12.66895
5.068509	19	5.376953	10.83008
5.076535	8	5.384766	9.386719
5.08456	8	5.417969	8.304688
5.092586	19	5.446289	7.493164
5.100612	13	5.438477	6.868164
5.108637	7	5.411133	6.400391
5.116663	9	5.375977	6.057617
5.124688	8	5.335938	5.813477
5.132714	9	5.295898	5.646484
5.140739	9	5.224609	5.508789
5.148765	14	5.130859	5.396484
5.156791	13	5.039063	5.324219
5.164816	20	5.013672	5.357422
5.172842	17	4.975586	5.411133
5.180868	9	4.875	5.438477
5.188893	13	4.744141	5.474609
5.196918	15	4.615234	5.554688
5.204944	13	4.577148	5.772461
5.21297	12	4.507813	6.007813
5.220995	13	4.400391	6.255859
5.229021	8	4.268555	6.533203
5.237047	7	4.125977	6.856445
5.245072	14	3.961914	7.214844
5.253098	10	3.789063	7.621094
5.261124	16	3.620117	8.088867
5.269149	17	3.666016	8.832031
5.277174	9	3.701172	9.626953
5.2852	17	3.730469	10.48242
5.293226	15	3.756836	11.4043
5.301251	15	3.783203	12.40039
5.309277	18	3.817383	13.48145
5.317303	21	3.849609	14.63867
5.325328	23	3.852539	15.83887
5.333354	17	3.84082	17.08691
5.34138	23	3.821289	18.37109
5.349405	24	3.797852	19.66992
5.35743	20	3.774414	20.9502
5.365456	27	3.733398	22.15039
5.373482	21	3.670898	23.2207
5.381507	23	3.610352	24.13086
5.389533	17	3.59375	24.875
5.397559	15	3.56543	25.35156
5.405584	24	3.487305	25.48828
5.41361	22	3.385742	25.29004
5.421636	22	3.286133	24.77344
5.429661	22	3.193359	23.9541
5.437686	25	3.070313	22.82031
5.445712	25	2.932617	21.4248
5.453738	16	2.787109	19.8252
5.461763	18	2.638672	18.08398
5.469789	14	2.470703	16.24414
5.477815	11	2.296875	14.37695
5.48584	14	2.128906	12.5498
5.493866	15	2.167969	11.00684
5.501892	19	2.203125	9.577148
5.509917	8	2.238281	8.286133
5.517942	5	2.272461	7.150391
5.525968	16	2.306641	6.174805
5.533994	13	2.337891	5.353516
5.542019	8	2.368164	4.680664
5.550045	11	2.380859	4.123047
5.558071	7	2.383789	3.675781
5.566096	12	2.382813	3.324219
5.574122	9	2.378906	3.054688
5.582148	10	2.375977	2.853516
5.590173	8	2.366211	2.698242
5.598198	10	2.338867	2.568359
5.606224	10	2.311523	2.46875
5.61425	7	2.290039	2.399414
5.622275	10	2.251953	2.332031
5.630301	7	2.182617	2.245117
5.638327	5	2.098633	2.155273
5.646352	6	2.016602	2.076172
5.654378	13	1.914063	1.988281
5.662404	13	1.791016	1.890625
5.670429	7	1.661133	1.800781
5.678455	13	1.527344	1.730469
5.68648	6	1.395508	1.691406
5.694506	11	1.25	1.681641
5.702531	9	1.104492	1.727539
5.710557	4	0.9667969	1.860352
5.718583	8	0.9882813	2.25293
5.726608	11	1.009766	2.779297
5.734634	6	1.039063	3.481445
5.74266	15	1.068359	4.390625
5.750685	16	1.09668	5.550781
5.758711	15	1.125977	7.004883
5.766736	18	1.154297	8.798828
5.774762	20	1.175781	10.95996
5.782787	15	1.192383	13.52344
5.790813	22	1.205078	16.50195
5.798839	28	1.216797	19.89551
5.806864	18	1.228516	23.67969
5.81489	35	1.242188	27.80469
5.822916	31	1.243164	32.17383
5.830941	34	1.243164	36.69629
5.838967	31	1.219727	41.2168
5.846992	38	1.180664	45.59668
5.855018	50	1.124023	49.67188
5.863043	44	1.05957	53.29297
5.871069	48	0.9980469	56.31641
5.879095	56	0.9111328	58.58203
5.88712	74	0.8125	59.99707
5.895146	46	0.7109375	60.50391
5.903172	47	0.6113281	60.08008
5.911197	54	0.5166016	58.74512
5.919223	60	0.4179688	56.5498
5.927248	59	0.3242188	53.60059
5.935274	39	0.2421875	50.03125
5.943299	40	0.2470703	46.06445
5.951325	47	0.2519531	41.77051
5.959351	31	0.2724609	37.32227
5.967376	37	0.2910156	32.85254
5.975402	41	0.3095703	28.49414
5.983428	52	0.3271484	24.3584
5.991453	23	0.3447266	20.52832
5.999479	25	0.3632813	17.06348
6.007504	25	0.3818359	13.99609
6.01553	20	0.3984375	11.33398
6.023555	22	0.4140625	9.070313
6.031581	22	0.4296875	7.182617
6.039607	19	0.4492188	5.640625
6.047632	17	0.4628906	4.397461
6.055658	19	0.46875	3.40918
6.063684	21	0.4570313	2.633789
6.071709	26	0.4365234	2.030273
6.079735	25	0.4033203	1.597656
6.08776	29	0.3662109	1.283203
6.095786	17	0.3271484	1.09668
6.103811	30	0.2724609	1.02832
6.111837	25	0.2148438	1.118164
6.119863	19	0.1572266	1.422852
6.127888	24	0.1054688	2.044922
6.135914	33	6.347656E-02	3.142578
6.143939	27	3.027344E-02	4.950195
6.151965	31	0.0078125	7.821289
6.159991	56	0	12.26855
6.168016	55	0	19.00293
6.176042	59	0	29.0127
6.184067	75	2.929688E-03	43.64941
6.192093	100	1.269531E-02	64.70215
6.200119	117	0.0234375	94.48047
6.208144	144	3.222656E-02	135.9082
6.21617	229	4.199219E-02	192.5918
6.224195	258	5.175781E-02	268.8584
6.232221	326	0.0625	369.7451
6.240247	483	9.179688E-02	500.9492
6.248272	636	0.125	668.6094
6.256298	804	0.1582031	879.1055
6.264323	1023	0.1845703	1138.668
6.272349	1399	0.2070313	1452.936
6.280375	1669	0.2236328	1826.367
6.2884	2049	0.2363281	2261.644
6.296426	2567	0.234375	2759.005
6.304451	3137	0.2246094	3315.697
6.312477	3821	0.2109375	3925.471
6.320503	4461	0.1914063	4578.281
6.328528	5136	0.1679688	5260.258
6.336554	5811	0.1425781	5953.955
6.344579	6620	0.1142578	6638.921
6.352605	7300	8.691406E-02	7292.614
6.360631	8002	5.859375E-02	7891.554
6.368656	8498	3.417969E-02	8412.703
6.376682	9057	0.015625	8834.92
6.384707	9106	3.90625E-03	9140.372
6.392733	9314	0	9315.787
6.400759	9542	0	9353.408
6.408784	9532	3.90625E-03	9251.569
6.41681	9076	1.367188E-02	9014.816
6.424835	8750	2.050781E-02	8653.559
6.432861	8410	2.441406E-02	8183.326
6.440886	7510	2.246094E-02	7623.66
6.448912	7268	1.855469E-02	6996.766
6.456938	6395	0.015625	6326.059
6.464963	5613	3.320313E-02	5634.754
6.472989	4853	0.0546875	4944.525
6.481015	4255	7.421875E-02	4274.496
6.48904	3569	8.398438E-02	3640.486
6.497066	2942	8.789063E-02	3054.588
6.505091	2464	8.203125E-02	2525.049
6.513117	2020	7.128906E-02	2056.448
6.521142	1667	0.0625	1650.082
6.529168	1169	6.738281E-02	1304.509
6.537194	980	6.933594E-02	1016.131
6.545219	720	6.738281E-02	779.8799
6.553245	580	5.859375E-02	589.7842
6.561271	441	4.785156E-02	439.5068
6.569296	319	3.515625E-02	322.75
6.577322	254	2.441406E-02	233.5732
6.585347	167	0.015625	166.5957
6.593373	128	8.789063E-03	117.1191
6.601398	86	3.90625E-03	81.16309
6.609424	80	9.765625E-04	55.45117
6.61745	74	0	37.35449
6.625475	48	0	24.81543
6.633501	38	0	16.26074
6.641527	40	0	10.51172
6.649552	41	0	6.705078
6.657578	29	0	4.222656
6.665603	35	1.953125E-03	2.625977
6.673629	36	3.90625E-03	1.616211
6.681654	32	6.835938E-03	0.9853516
6.68968	30	1.757813E-02	0.6044922
6.697706	33	2.832031E-02	0.3769531
6.705731	18	3.710938E-02	0.2431641
6.713757	30	4.394531E-02	0.1689453
6.721783	32	4.980469E-02	0.1201172
6.729808	32	4.492188E-02	9.667969E-02
6.737834	32	3.613281E-02	7.226563E-02
6.74586	24	2.832031E-02	8.007813E-02
6.753885	31	4.980469E-02	0.1318359
6.76191	38	6.933594E-02	0.2021484
6.769936	35	0.0859375	0.3017578
6.777962	37	9.179688E-02	0.4394531
6.785987	38	8.984375E-02	0.6474609
6.794013	36	8.496094E-02	0.9658203
6.802039	52	7.714844E-02	1.454102
6.810064	54	6.933594E-02	2.195313
6.81809	44	0.078125	3.31543
6.826116	52	0.0859375	4.951172
6.834141	60	0.09375	7.305664
6.842166	63	0.1015625	10.64941
6.850192	66	0.109375	15.32422
6.858218	82	0.1162109	21.7627
6.866243	79	0.1230469	30.49707
6.874269	109	0.1298828	42.16309
6.882295	109	0.140625	57.50488
6.89032	136	0.1523438	77.35742
6.898346	150	0.1640625	102.6338
6.906372	179	0.1767578	134.2959
6.914397	240	0.2138672	173.3262
6.922422	272	0.2451172	220.5908
6.930448	334	0.2695313	276.8486
6.938474	396	0.2861328	342.6377
6.946499	509	0.2988281	418.1865
6.954525	592	0.2910156	503.3076
6.962551	639	0.2724609	597.3633
6.970576	775	0.2558594	699.1826
6.978602	874	0.3037109	807.0889
6.986628	998	0.3447266	918.7148
6.994653	1057	0.3779297	1031.266
7.002678	1114	0.3896484	1141.529
7.010704	1316	0.390625	1246.051
7.01873	1411	0.3828125	1341.277
7.026755	1449	0.3730469	1423.758
7.034781	1461	0.3623047	1490.354
7.042807	1581	0.3769531	1538.457
7.050832	1619	0.3916016	1566.088
7.058858	1501	0.4072266	1572.106
7.066884	1579	0.4228516	1556.262
7.074909	1525	0.4375	1519.213
7.082934	1459	0.453125	1462.481
7.09096	1344	0.4677734	1388.348
7.098986	1266	0.4833984	1299.697
7.107011	1192	0.4980469	1199.841
7.115037	1079	0.5117188	1092.303
7.123063	963	0.5244141	980.6211
7.131088	795	0.5380859	868.1631
7.139114	745	0.5927734	757.998
7.14714	645	0.6367188	652.6533
7.155165	524	0.6728516	554.1787
7.16319	440	0.6972656	464.0576
7.171216	363	0.7158203	383.2324
7.179242	284	0.7080078	312.1064
7.187267	245	0.6875	250.6738
7.195293	166	0.6669922	198.5713
7.203319	142	0.7304688	155.2314
7.211344	124	0.7832031	119.7305
7.21937	86	0.8291016	91.13965
7.227396	82	0.8476563	68.47168
7.235421	54	0.8515625	50.79785
7.243446	44	0.8466797	37.24219
7.251472	34	0.8388672	27.0166
7.259498	19	0.8310547	19.43359
7.267523	21	0.8417969	13.92773
7.275549	17	0.8535156	9.999023
7.283575	13	0.8642578	7.260742
7.2916	12	0.8759766	5.412109
7.299626	11	0.9023438	4.236328
7.307652	10	0.9267578	3.543945
7.315677	8	0.9501953	3.211914
7.323702	9	0.9726563	3.150391
7.331728	18	0.9951172	3.299805
7.339754	9	1.011719	3.610352
7.347779	6	1.022461	4.057617
7.355805	14	1.033203	4.624023
7.363831	8	1.098633	5.350586
7.371856	12	1.152344	6.15625
7.379882	11	1.195313	7.027344
7.387908	9	1.224609	7.945313
7.395933	14	1.24707	8.898438
7.403959	11	1.241211	9.837891
7.411984	13	1.222656	10.76074
7.42001	16	1.203125	11.65039
7.428035	5	1.269531	12.56152
7.436061	20	1.326172	13.37207
7.444087	16	1.376953	14.05957
7.452112	18	1.401367	14.5791
7.460138	9	1.411133	14.9248
7.468163	8	1.413086	15.08984
7.476189	9	1.412109	15.07324
7.484215	14	1.410156	14.87695
7.49224	11	1.410156	14.5127
7.500266	11	1.411133	13.99121
7.508291	15	1.411133	13.33301
7.516317	17	1.411133	12.56152
7.524343	16	1.451172	11.74316
7.532368	20	1.485352	10.86035
7.540394	12	1.514648	9.943359
7.548419	10	1.542969	9.021484
7.556445	6	1.572266	8.120117
7.564471	5	1.589844	7.249023
7.572496	8	1.594727	6.421875
7.580522	8	1.599609	5.662109
7.588547	11	1.668945	5.043945
7.596573	4	1.727539	4.494141
7.604599	6	1.774414	4.012695
7.612624	4	1.805664	3.59375
7.62065	4	1.831055	3.240234
7.628675	6	1.829102	2.924805
7.636701	7	1.814453	2.655273
7.644727	7	1.799805	2.436523
7.652752	5	1.860352	2.336914
7.660778	6	1.915039	2.266602
7.668803	5	1.963867	2.219727
7.676829	5	1.991211	2.175781
7.684855	8	2.008789	2.139648
7.69288	3	2.019531	2.112305
7.700906	4	2.027344	2.091797
7.708931	2	2.023438	2.067383
7.716957	9	2.013672	2.044922
7.724983	4	2.001953	2.023438
7.733008	5	1.987305	2.003906
7.741034	7	1.973633	1.987305
7.749059	3	2.024414	2.036133
7.757085	6	2.067383	2.080078
7.76511	7	2.103516	2.119141
7.773136	5	2.136719	2.157227
7.781162	4	2.169922	2.197266
7.789187	7	2.181641	2.220703
7.797213	8	2.181641	2.236328
7.805239	6	2.181641	2.258789
7.813264	5	2.25293	2.361328
7.82129	9	2.31543	2.46582
7.829315	5	2.362305	2.570313
7.837341	6	2.394531	2.678711
7.845366	6	2.419922	2.802734
7.853392	7	2.420898	2.932617
7.861418	3	2.410156	3.085938
7.869443	4	2.399414	3.28125
7.877469	10	2.451172	3.588867
7.885495	7	2.5	3.948242
7.89352	5	2.542969	4.365234
7.901546	5	2.573242	4.838867
7.909571	10	2.588867	5.371094
7.917597	5	2.597656	5.973633
7.925622	5	2.600586	6.646484
7.933648	7	2.592773	7.382813
7.941674	6	2.579102	8.180664
7.949699	12	2.560547	9.030273
7.957725	7	2.538086	9.920898
7.965751	11	2.516602	10.83691
7.973776	16	2.575195	11.83691
7.981802	16	2.626953	12.8125
7.989827	15	2.667969	13.73145
7.997853	19	2.700195	14.57129
8.005878	20	2.728516	15.31055
8.013905	10	2.736328	15.90918
8.02193	18	2.733398	16.35742
8.029955	11	2.731445	16.65039
8.037981	19	2.802734	16.85156
8.046006	27	2.866211	16.87402
8.054032	20	2.911133	16.71094
8.062057	11	2.942383	16.375
8.070084	27	2.96582	15.8877
8.078109	14	2.969727	15.25488
8.086135	12	2.961914	14.51074
8.09416	16	2.954102	13.69043
8.102186	17	2.996094	12.87207
8.110211	8	3.038086	12.03223
8.118237	9	3.072266	11.19043
8.126263	6	3.100586	10.37012
8.134288	12	3.108398	9.578125
8.142314	7	3.106445	8.84082
8.150339	10	3.105469	8.179688
8.158365	10	3.095703	7.59375
8.16639	5	3.082031	7.09082
8.174417	14	3.05957	6.663086
8.182442	4	3.032227	6.313477
8.190467	10	3.004883	6.038086
8.198493	3	3.067383	5.918945
8.206518	8	3.125	5.849609
8.214544	8	3.167969	5.80957
8.222569	6	3.196289	5.787109
8.230596	8	3.217773	5.779297
8.238621	5	3.222656	5.766602
8.246647	8	3.21875	5.74707
8.254672	8	3.214844	5.722656
8.262698	10	3.283203	5.757813
8.270723	7	3.345703	5.773438
8.278749	7	3.387695	5.749023
8.286775	3	3.415039	5.691406
8.2948	3	3.435547	5.607422
8.302826	9	3.439453	5.491211
8.310851	8	3.435547	5.351563
8.318877	8	3.431641	5.202148
8.326902	7	3.461914	5.079102
8.334929	5	3.493164	4.953125
8.342954	10	3.517578	4.824219
8.350979	2	3.540039	4.696289
8.359005	6	3.541992	4.558594
8.36703	6	3.533203	4.421875
8.375056	5	3.525391	4.300781
8.383081	6	3.516602	4.197266
8.391108	2	3.501953	4.109375
8.399133	3	3.477539	4.035156
8.407159	1	3.447266	3.981445
8.415184	5	3.416992	3.958984
8.42321	8	3.480469	4.0625
8.431235	4	3.538086	4.198242
8.43926	6	3.579102	4.361328
8.447287	7	3.602539	4.556641
8.455312	7	3.619141	4.799805
8.463338	7	3.621094	5.089844
8.471363	7	3.617188	5.442383
8.479389	10	3.612305	5.871094
8.487414	8	3.674805	6.446289
8.49544	3	3.731445	7.100586
8.503466	9	3.767578	7.822266
8.511492	11	3.791016	8.619141
8.519517	9	3.808594	9.493164
8.527542	13	3.814453	10.43164
8.535568	9	3.813477	11.43066
8.543593	11	3.813477	12.48047
8.55162	16	3.832031	13.58203
8.559645	13	3.851563	14.69238
8.567671	15	3.867188	15.78516
8.575696	17	3.881836	16.83203
8.583722	16	3.878906	17.79004
8.591747	13	3.867188	18.63867
8.599772	20	3.854492	19.35938
8.607799	16	3.84668	19.93555
8.615824	22	3.833984	20.33496
8.62385	13	3.808594	20.54004
8.631875	21	3.777344	20.54785
8.639901	16	3.74707	20.36328
8.647926	22	3.804688	20.0791
8.655952	32	3.856445	19.61523
8.663978	24	3.893555	18.97852
8.672004	20	3.914063	18.19043
8.680029	28	3.925781	17.28516
8.688054	17	3.926758	16.28809
8.69608	19	3.922852	15.2334
8.704105	12	3.917969	14.15723
8.712132	18	3.969727	13.1416
8.720157	18	4.014648	12.14844
8.728183	16	4.045898	11.19238
8.736208	7	4.06543	10.29297
8.744234	13	4.081055	9.470703
8.752259	7	4.087891	8.731445
8.760285	8	4.089844	8.083008
8.768311	9	4.092773	7.532227
8.776336	4	4.101563	7.084961
8.784362	10	4.110352	6.728516
8.792387	5	4.118164	6.458008
8.800413	3	4.125977	6.264648
8.808438	7	4.120117	6.12793
8.816464	8	4.108398	6.042969
8.82449	2	4.09668	6.007813
8.832516	6	4.089844	6.016602
8.840541	7	4.078125	6.049805
8.848566	7	4.054688	6.09082
8.856592	8	4.026367	6.136719
8.864617	8	3.99707	6.185547
8.872643	2	4.045898	6.307617
8.880669	8	4.089844	6.413086
8.888695	8	4.121094	6.489258
8.89672	7	4.136719	6.53125
8.904746	6	4.145508	6.542969
8.912771	7	4.145508	6.521484
8.920797	7	4.140625	6.47168
8.928823	8	4.135742	6.398438
8.936848	5	4.172852	6.344727
8.944874	7	4.204102	6.267578
8.952899	10	4.227539	6.166016
8.960925	10	4.244141	6.046875
8.96895	10	4.255859	5.916016
8.976976	6	4.264648	5.77832
8.985002	5	4.270508	5.638672
8.993028	3	4.274414	5.500977
9.001053	4	4.276367	5.370117
9.009078	5	4.277344	5.249023
9.017104	11	4.27832	5.140625
9.025129	8	4.279297	5.047852
9.033155	2	4.276367	4.966797
9.041181	3	4.268555	4.897461
9.049207	4	4.261719	4.844727
9.057232	4	4.255859	4.811523
9.065258	4	4.24707	4.790039
9.073283	9	4.228516	4.774414
9.081309	6	4.205078	4.765625
9.089334	11	4.180664	4.769531
9.09736	5	4.216797	4.841797
9.105386	12	4.249023	4.917969
9.113411	5	4.270508	4.988281
9.121437	6	4.282227	5.050781
9.129462	8	4.289063	5.109375
9.137488	12	4.289063	5.15918
9.145514	6	4.285156	5.201172
9.15354	11	4.28125	5.236328
9.161565	9	4.303711	5.291016
9.169591	13	4.322266	5.332031
9.177616	13	4.335938	5.358398
9.185641	7	4.344727	5.369141
9.193667	11	4.351563	5.365234
9.201693	15	4.355469	5.349609
9.209719	13	4.358398	5.321289
9.217744	22	4.361328	5.28418
9.22577	15	4.363281	5.238281
9.233795	12	4.366211	5.185547
9.241821	16	4.368164	5.12793
9.249846	14	4.370117	5.066406
9.257872	13	4.369141	5
9.265898	15	4.366211	4.932617
9.273923	14	4.362305	4.865234
9.281949	19	4.358398	4.799805
9.289974	11	4.354492	4.738281
9.298	16	4.34375	4.675781
9.306026	15	4.331055	4.615234
9.314052	14	4.318359	4.560547
9.322077	13	4.333984	4.541016
9.330103	12	4.34668	4.526367
9.338128	7	4.352539	4.510742
9.346153	10	4.354492	4.499023
9.354179	11	4.357422	4.494141
9.362205	9	4.362305	4.5
9.370231	5	4.365234	4.512695
9.378256	7	4.367188	4.533203
9.386282	9	4.365234	4.55957
9.394307	8	4.362305	4.595703
9.402333	4	4.358398	4.640625
9.410358	3	4.353516	4.698242
9.418384	4	4.348633	4.767578
9.42641	8	4.345703	4.853516
9.434435	7	4.341797	4.952148
9.442461	9	4.335938	5.063477
9.450486	6	4.329102	5.1875
9.458512	2	4.322266	5.324219
9.466537	5	4.322266	5.480469
9.474564	9	4.322266	5.647461
9.482589	7	4.318359	5.818359
9.490615	5	4.313477	5.993164
9.49864	5	4.308594	6.168945
9.506665	13	4.30957	6.347656
9.514691	7	4.308594	6.518555
9.522717	8	4.304688	6.674805
9.530743	5	4.298828	6.8125
9.538768	5	4.291992	6.930664
9.546794	9	4.28418	7.023438
9.554819	10	4.277344	7.09082
9.562845	10	4.266602	7.125
9.57087	6	4.253906	7.126953
9.578897	12	4.241211	7.098633
9.586922	5	4.237305	7.047852
9.594947	9	4.231445	6.966797
9.602973	9	4.21875	6.852539
9.610998	7	4.203125	6.711914
9.619024	2	4.1875	6.550781
9.627049	8	4.189453	6.392578
9.635076	6	4.189453	6.220703
9.643101	8	4.183594	6.037109
9.651127	9	4.173828	5.847656
9.659152	9	4.165039	5.65918
9.667177	1	4.157227	5.477539
9.675203	5	4.146484	5.299805
9.683228	1	4.135742	5.133789
9.691255	3	4.129883	4.983398
9.69928	7	4.123047	4.845703
9.707306	2	4.112305	4.717773
9.715331	5	4.099609	4.601563
9.723357	6	4.085938	4.499023
9.731382	4	4.080078	4.415039
9.739408	3	4.073242	4.342773
9.747434	5	4.061523	4.275391
9.755459	7	4.046875	4.214844
9.763485	7	4.030273	4.161133
9.77151	2	4.012695	4.114258
9.779536	6	3.996094	4.072266
9.787561	4	3.972656	4.03125
9.795588	2	3.948242	3.991211
9.803613	8	3.922852	3.955078
9.811639	6	3.905273	3.928711
9.819664	5	3.887695	3.905273
9.82769	2	3.864258	3.875977
9.835715	1	3.836914	3.845703
9.84374	11	3.810547	3.816406
9.851767	5	3.828125	3.832031
9.859792	3	3.841797	3.844727
9.867818	6	3.848633	3.850586
9.875843	2	3.850586	3.851563
9.883869	7	3.852539	3.853516
9.891894	6	3.849609	3.850586
9.89992	3	3.84375	3.844727
9.907946	6	3.837891	3.838867
9.915971	1	3.834961	3.834961
9.923997	9	3.830078	3.830078
9.932022	3	3.820313	3.820313
9.940048	3	3.807617	3.807617
9.948073	8	3.794922	3.794922
9.9561	8	3.78418	3.785156
9.964125	5	3.773438	3.774414
9.972151	6	3.758789	3.759766
9.980176	7	3.741211	3.742188
9.988202	1	3.71875	3.719727
9.996227	5	3.693359	3.695313
10.00425	5	3.668945	3.670898
10.01228	3	3.646484	3.649414
10.0203	2	3.623047	3.625977
10.02833	5	3.595703	3.598633
10.03636	5	3.566406	3.570313
10.04438	4	3.536133	3.541016
10.05241	3	3.505859	3.510742
10.06043	5	3.475586	3.481445
10.06846	5	3.450195	3.457031
10.07648	4	3.498047	3.505859
10.08451	2	3.541992	3.549805
10.09253	2	3.577148	3.585938
10.10056	4	3.606445	3.616211
10.10859	5	3.632813	3.643555
10.11661	6	3.654297	3.665039
10.12464	4	3.672852	3.68457
10.13266	7	3.69043	3.703125
10.14069	2	3.708008	3.72168
10.14871	4	3.725586	3.740234
10.15674	8	3.739258	3.754883
10.16476	10	3.750977	3.767578
10.17279	5	3.758789	3.777344
10.18082	10	3.763672	3.785156
10.18884	5	3.768555	3.792969
10.19687	5	3.768555	3.797852
10.20489	3	3.765625	3.802734
10.21292	3	3.757813	3.803711
10.22094	3	3.748047	3.806641
10.22897	5	3.738281	3.8125
10.237	3	3.744141	3.838867
10.24502	8	3.75	3.87207
10.25305	7	3.74707	3.905273
10.26107	5	3.739258	3.941406
10.2691	4	3.727539	3.985352
10.27712	4	3.709961	4.038086
10.28515	3	3.69043	4.105469
10.29317	4	3.670898	4.191406
10.3012	5	3.71582	4.365234
10.30923	8	3.756836	4.563477
10.31725	9	3.787109	4.78125
10.32528	2	3.811523	5.030273
10.3333	2	3.833984	5.317383
10.34133	4	3.849609	5.645508
10.34935	8	3.862305	6.022461
10.35738	9	3.875	6.458008
10.36541	7	3.897461	6.967773
10.37343	5	3.919922	7.546875
10.38146	5	3.935547	8.193359
10.38948	6	3.947266	8.916016
10.39751	10	3.957031	9.717773
10.40553	18	3.964844	10.60254
10.41356	13	3.97168	11.56934
10.42158	9	3.973633	12.6123
10.42961	12	3.972656	13.72852
10.43764	15	3.967773	14.90723
10.44566	16	3.959961	16.13965
10.45369	15	3.952148	17.41211
10.46171	15	3.959961	18.72168
10.46974	17	3.966797	20.0332
10.47776	20	3.96582	21.3125
10.48579	21	3.958008	22.53613
10.49381	20	3.946289	23.67969
10.50184	18	3.929688	24.71387
10.50987	20	3.90918	25.61426
10.51789	25	3.888672	26.3584
10.52592	19	3.928711	26.9873
10.53394	17	3.96582	27.41699
10.54197	19	3.992188	27.62793
10.54999	19	4.011719	27.61816
10.55802	25	4.030273	27.38965
10.56604	18	4.041992	26.94336
10.57407	22	4.050781	26.29395
10.5821	17	4.05957	25.46094
10.59012	21	4.083984	24.48047
10.59815	15	4.107422	23.3623
10.60617	21	4.125	22.12793
10.6142	15	4.138672	20.81055
10.62222	18	4.149414	19.43945
10.63025	12	4.158203	18.0459
10.63828	11	4.166016	16.65918
10.6463	14	4.169922	15.29883
10.65433	12	4.172852	13.98926
10.66235	12	4.169922	12.74512
10.67038	10	4.166016	11.58398
10.6784	14	4.162109	10.51563
10.68643	12	4.167969	9.556641
10.69445	7	4.171875	8.698242
10.70248	7	4.169922	7.93457
10.71051	7	4.164063	7.264648
10.71853	11	4.155273	6.68457
10.72656	6	4.139648	6.182617
10.73458	6	4.121094	5.754883
10.74261	5	4.101563	5.396484
10.75063	6	4.136719	5.152344
10.75866	4	4.166016	4.956055
10.76668	8	4.1875	4.796875
10.77471	3	4.203125	4.668945
10.78274	5	4.216797	4.570313
10.79076	7	4.226563	4.492188
10.79879	3	4.233398	4.433594
10.80681	9	4.241211	4.390625
10.81484	6	4.261719	4.373047
10.82286	8	4.28125	4.365234
10.83089	4	4.294922	4.358398
10.83891	6	4.305664	4.354492
10.84694	10	4.316406	4.354492
10.85497	7	4.328125	4.358398
10.86299	7	4.338867	4.364258
10.87102	7	4.345703	4.367188
10.87904	5	4.351563	4.370117
10.88707	9	4.354492	4.371094
10.89509	7	4.356445	4.371094
10.90312	9	4.357422	4.371094
10.91115	11	4.357422	4.370117
10.91917	6	4.354492	4.366211
10.9272	6	4.352539	4.363281
10.93522	7	4.349609	4.359375
10.94325	5	4.344727	4.353516
10.95127	8	4.334961	4.342773
10.9593	10	4.324219	4.331055
10.96733	4	4.3125	4.319336
10.97535	10	4.333008	4.338867
10.98338	6	4.348633	4.354492
10.9914	9	4.363281	4.368164
10.99943	11	4.375	4.379883
11.00745	8	4.385742	4.389648
11.01548	3	4.395508	4.398438
11.0235	7	4.40332	4.40625
11.03153	7	4.410156	4.413086
11.03956	5	4.416016	4.418945
11.04758	8	4.420898	4.422852
11.05561	8	4.424805	4.427734
11.06363	8	4.429688	4.431641
11.07166	4	4.433594	4.436523
11.07968	4	4.4375	4.44043
11.08771	9	4.44043	4.444336
11.09573	9	4.443359	4.448242
11.10376	8	4.447266	4.453125
11.11179	9	4.450195	4.458008
11.11981	12	4.453125	4.462891
11.12784	6	4.458984	4.472656
11.13586	8	4.464844	4.481445
11.14389	7	4.469727	4.490234
11.15191	3	4.472656	4.5
11.15994	4	4.476563	4.509766
11.16796	5	4.480469	4.520508
11.17599	8	4.483398	4.533203
11.18402	13	4.485352	4.545898
11.19204	13	4.487305	4.560547
11.20007	10	4.490234	4.576172
11.20809	5	4.492188	4.59375
11.21612	5	4.493164	4.612305
11.22414	7	4.493164	4.631836
11.23217	5	4.492188	4.651367
11.2402	7	4.491211	4.671875
11.24822	6	4.489258	4.694336
11.25625	9	4.485352	4.713867
11.26427	7	4.478516	4.732422
11.2723	10	4.472656	4.75
11.28032	7	4.475586	4.777344
11.28835	9	4.478516	4.803711
11.29637	6	4.481445	4.828125
11.3044	11	4.485352	4.850586
11.31243	7	4.486328	4.869141
11.32045	4	4.487305	4.883789
11.32848	5	4.484375	4.891602
11.3365	4	4.480469	4.895508
11.34453	2	4.476563	4.895508
11.35255	5	4.47168	4.889648
11.36058	7	4.462891	4.876953
11.3686	5	4.454102	4.861328
11.37663	4	4.459961	4.854492
11.38466	6	4.464844	4.844727
11.39268	5	4.464844	4.828125
11.40071	10	4.460938	4.804688
11.40873	4	4.455078	4.777344
11.41676	6	4.445313	4.745117
11.42478	7	4.43457	4.710938
11.43281	5	4.423828	4.676758
11.44083	7	4.426758	4.657227
11.44886	2	4.429688	4.637695
11.45689	2	4.431641	4.617188
11.46491	3	4.427734	4.59375
11.47294	3	4.420898	4.568359
11.48096	5	4.412109	4.542969
11.48899	5	4.402344	4.518555
11.49701	3	4.392578	4.496094
11.50504	3	4.445313	4.537109
11.51307	4	4.496094	4.579102
11.52109	7	4.544922	4.621094
11.52912	4	4.591797	4.661133
11.53714	11	4.62793	4.694336
11.54517	4	4.660156	4.723633
11.55319	8	4.689453	4.751953
11.56122	6	4.716797	4.779297
11.56924	6	4.744141	4.80957
11.57727	7	4.763672	4.833008
11.5853	5	4.779297	4.853516
11.59332	8	4.793945	4.87793
11.60135	8	4.849609	4.944336
11.60937	9	4.901367	5.010742
11.6174	8	4.950195	5.079102
11.62542	4	4.995117	5.150391
11.63345	4	5.032227	5.22168
11.64147	6	5.066406	5.299805
11.6495	6	5.097656	5.385742
11.65753	4	5.126953	5.486328
11.66555	11	5.15625	5.603516
11.67358	5	5.177734	5.734375
11.6816	10	5.195313	5.888672
11.68963	4	5.212891	6.072266
11.69765	7	5.266602	6.325195
11.70568	4	5.316406	6.615234
11.71371	5	5.360352	6.943359
11.72173	5	5.395508	7.3125
11.72976	5	5.426758	7.730469
11.73778	4	5.453125	8.201172
11.74581	8	5.476563	8.731445
11.75383	18	5.500977	9.324219
11.76186	13	5.546875	10.00391
11.76989	10	5.592773	10.74609
11.77791	19	5.633789	11.54492
11.78594	13	5.670898	12.39551
11.79396	6	5.705078	13.29297
11.80199	19	5.736328	14.22852
11.81001	13	5.765625	15.19434
11.81804	18	5.791016	16.1709
11.82606	24	5.8125	17.14746
11.83409	26	5.833984	18.10938
11.84212	20	5.853516	19.03906
11.85014	17	5.874023	19.91992
11.85817	28	5.917969	20.75684
11.86619	24	5.958008	21.50684
11.87422	26	5.987305	22.14355
11.88224	20	6.009766	22.66113
11.89027	30	6.033203	23.05078
11.89829	19	6.043945	23.29297
11.90632	27	6.048828	23.3877
11.91435	35	6.052734	23.33887
11.92237	32	6.108398	23.19922
11.9304	14	6.160156	22.91797
11.93842	17	6.205078	22.50098
11.94645	19	6.248047	21.96289
11.95447	23	6.280273	21.31152
11.9625	18	6.308594	20.56738
11.97052	13	6.333984	19.75
11.97855	24	6.358398	18.87891
11.98658	21	6.383789	17.97363
11.9946	19	6.397461	17.04102
12.00263	20	6.405273	16.10254
12.01065	10	6.412109	15.18164
12.01868	17	6.457031	14.32617
12.0267	10	6.501953	13.5127
12.03473	17	6.542969	12.74609
12.04276	8	6.576172	12.03027
12.05078	10	6.606445	11.37305
12.05881	10	6.632813	10.77832
12.06683	9	6.657227	10.24707
12.07486	8	6.681641	9.78125
12.08288	10	6.707031	9.379883
12.09091	11	6.731445	9.038086
12.09893	8	6.756836	8.751953
12.10696	9	6.782227	8.517578
12.11499	11	6.8125	8.333008
12.12301	8	6.835938	8.183594
12.13104	7	6.856445	8.066406
12.13906	18	6.875977	7.979492
12.14709	11	6.894531	7.919922
12.15511	12	6.927734	7.897461
12.16314	7	6.955078	7.889648
12.17116	10	6.972656	7.887695
12.17919	7	6.984375	7.894531
12.18722	6	6.996094	7.912109
12.19524	9	7.009766	7.94043
12.20327	5	7.009766	7.963867
12.21129	4	7.010742	7.994141
12.21932	6	7.025391	8.041016
12.22734	8	7.035156	8.086914
12.23537	7	7.017578	8.105469
12.24339	6	6.984375	8.109375
12.25142	12	6.951172	8.112305
12.25945	7	7.069336	8.262695
12.26747	11	7.172852	8.394531
12.2755	11	7.25	8.498047
12.28352	7	7.316406	8.583008
12.29155	5	7.381836	8.663086
12.29957	7	7.447266	8.738281
12.3076	11	7.509766	8.804688
12.31563	6	7.570313	8.865234
12.32365	4	7.626953	8.920898
12.33168	8	7.682617	8.973633
12.3397	11	7.737305	9.027344
12.34773	9	7.791016	9.086914
12.35575	8	7.845703	9.155273
12.36378	8	7.901367	9.240234
12.37181	7	7.958008	9.34375
12.37983	8	8.011719	9.470703
12.38786	11	8.06543	9.628906
12.39588	8	8.119141	9.825195
12.40391	10	8.175781	10.07031
12.41193	10	8.231445	10.36914
12.41996	9	8.288086	10.72852
12.42798	14	8.344727	11.15625
12.43601	10	8.401367	11.66016
12.44404	16	8.458008	12.24512
12.45206	9	8.515625	12.91602
12.46009	14	8.571289	13.67773
12.46811	18	8.625977	14.52832
12.47614	16	8.677734	15.46875
12.48416	15	8.728516	16.49707
12.49219	11	8.779297	17.6084
12.50021	12	8.837891	18.80371
12.50824	17	8.897461	20.06055
12.51627	27	8.957031	21.36719
12.52429	24	9.013672	22.7002
12.53232	18	9.068359	24.04297
12.54034	19	9.12207	25.37207
12.54837	23	9.175781	26.66504
12.55639	26	9.229492	27.89844
12.56442	31	9.288086	29.05078
12.57244	22	9.34668	30.09375
12.58047	48	9.405273	31.00586
12.5885	31	9.458984	31.76074
12.59652	27	9.509766	32.3457
12.60455	33	9.55957	32.74902
12.61257	28	9.608398	32.96387
12.6206	33	9.658203	32.98633
12.62862	51	9.722656	32.83496
12.63665	49	9.787109	32.49902
12.64468	34	9.847656	31.98828
12.6527	45	9.902344	31.31445
12.66073	52	9.954102	30.49902
12.66875	51	10.00293	29.56348
12.67678	40	10.0498	28.53223
12.6848	57	10.09668	27.43066
12.69283	50	10.1543	26.29395
12.70085	52	10.21191	25.13574
12.70888	63	10.27051	23.97656
12.71691	57	10.3291	22.83691
12.72493	60	10.39258	21.73926
12.73296	47	10.4541	20.69043
12.74098	59	10.51563	19.7041
12.74901	55	10.56738	18.77832
12.75703	59	10.61523	17.92383
12.76506	54	10.66113	17.14648
12.77308	60	10.70508	16.44727
12.78111	58	10.75	15.8252
12.78914	59	10.82129	15.30469
12.79716	56	10.88867	14.85156
12.80519	50	10.95703	14.46191
12.81321	50	11.01563	14.12207
12.82124	44	11.06738	13.82813
12.82926	56	11.11523	13.57813
12.83729	47	11.16113	13.36816
12.84531	37	11.20703	13.19434
12.85334	46	11.27734	13.07813
12.86137	62	11.34668	12.9873
12.86939	39	11.41016	12.91602
12.87742	29	11.46875	12.86035
12.88544	36	11.52539	12.82227
12.89347	43	11.5752	12.79395
12.90149	30	11.62305	12.77637
12.90952	34	11.66895	12.77051
12.91755	23	11.71387	12.77539
12.92557	25	11.75879	12.79004
12.9336	29	11.80176	12.81055
12.94162	33	11.83594	12.8291
12.94965	30	11.87109	12.85449
12.95767	28	11.92676	12.90527
12.9657	27	11.97949	12.95703
12.97372	31	12.01465	12.99414
12.98175	28	12.04297	13.02539
12.98978	26	12.07031	13.05762
12.9978	29	12.16309	13.15723
13.00583	20	12.24902	13.25293
13.01385	21	12.31348	13.33008
13.02188	21	12.36816	13.40234
13.0299	26	12.42188	13.48047
13.03793	20	12.4873	13.58105
13.04595	21	12.5459	13.68945
13.05398	19	12.60547	13.81836
13.06201	13	12.67871	13.98828
13.07003	25	12.75098	14.19238
13.07806	19	12.81836	14.43359
13.08608	18	12.88379	14.72852
13.09411	28	12.94531	15.08594
13.10213	13	13.00586	15.52441
13.11016	18	13.06641	16.05859
13.11819	22	13.12012	16.70117
13.12621	21	13.16797	17.47168
13.13424	19	13.20898	18.39063
13.14226	17	13.24707	19.48145
13.15029	28	13.28516	20.77148
13.15831	27	13.32227	22.28223
13.16634	31	13.34766	24.02441
13.17437	35	13.37305	26.0332
13.18239	39	13.40918	28.33691
13.19042	33	13.44141	30.93945
13.19844	40	13.45117	33.83496
13.20647	30	13.4502	37.04395
13.21449	40	13.44824	40.58008
13.22252	37	13.5752	44.56543
13.23054	51	13.68555	48.84668
13.23857	37	13.76855	53.39258
13.2466	52	13.83789	58.1875
13.25462	74	13.9082	63.20605
13.26265	62	13.9707	68.39453
13.27067	68	14.02637	73.69531
13.2787	71	14.08203	79.05078
13.28672	81	14.1709	84.42285
13.29475	98	14.25781	89.69727
13.30277	97	14.33887	94.78711
13.3108	84	14.41602	99.61133
13.31883	106	14.48535	104.0781
13.32685	113	14.54883	108.1123
13.33488	117	14.61133	111.6367
13.3429	103	14.66504	114.5771
13.35093	104	14.71387	116.877
13.35895	111	14.75195	118.4795
13.36698	115	14.7832	119.3584
13.375	113	14.81543	119.4971
13.38303	115	14.85352	118.8984
13.39106	124	14.875	117.5508
13.39908	113	14.89746	115.498
13.40711	105	14.91895	112.7793
13.41513	122	14.93457	109.4443
13.42316	92	14.92285	105.5381
13.43118	115	14.89746	101.1504
13.43921	106	14.87207	96.37598
13.44724	102	15.02734	91.48242
13.45526	105	15.16211	86.35645
13.46329	91	15.26074	81.07031
13.47131	79	15.34277	75.72656
13.47934	72	15.4248	70.4209
13.48736	66	15.49512	65.21387
13.49539	64	15.55664	60.16992
13.50341	58	15.61816	55.35156
13.51144	59	15.7207	50.84473
13.51947	44	15.82422	46.63965
13.52749	51	15.91504	42.74902
13.53552	41	16.00098	39.19043
13.54354	36	16.0752	35.96484
13.55157	47	16.14355	33.07422
13.55959	38	16.20996	30.5127
13.56762	35	16.26855	28.25781
13.57564	30	16.32227	26.29785
13.58367	25	16.3584	24.59473
13.5917	21	16.38574	23.13379
13.59972	18	16.41406	21.90039
13.60775	24	16.45117	20.87793
13.61577	27	16.46973	20.01367
13.6238	21	16.4873	19.30371
13.63182	21	16.49707	18.71777
13.63985	20	16.49707	18.23438
13.64787	19	16.46387	17.81348
13.6559	21	16.41602	17.45605
13.66393	18	16.36719	17.16309
13.67195	13	16.57324	17.17773
13.67998	17	16.75	17.20605
13.688	17	16.89648	17.23828
13.69603	19	17.02734	17.28223
13.70405	14	17.15039	17.34082
13.71208	21	17.26074	17.40332
13.72011	14	17.36621	17.47461
13.72813	15	17.47168	17.55566
13.73616	18	17.60059	17.66992
13.74418	23	17.72949	17.79102
13.75221	18	17.84863	17.9082
13.76023	25	17.96289	18.02637
13.76826	23	18.06348	18.1377
13.77628	30	18.15723	18.24805
13.78431	21	18.24805	18.36328
13.79234	19	18.33301	18.48047
13.80036	16	18.41406	18.60547
13.80839	16	18.48047	18.72852
13.81641	28	18.53906	18.86035
13.82444	16	18.59863	19.0127
13.83246	19	18.68457	19.2168
13.84049	20	18.75586	19.43652
13.84852	21	18.81543	19.68066
13.85654	21	18.8584	19.95215
13.86457	23	18.8916	20.26563
13.87259	22	18.9043	20.62207
13.88062	22	18.90723	21.03906
13.88864	29	18.91016	21.54004
13.89667	26	19.09766	22.32129
13.90469	22	19.2627	23.18945
13.91272	20	19.40723	24.16113
13.92075	37	19.53711	25.25391
13.92877	27	19.66016	26.49023
13.9368	22	19.77539	27.88281
13.94482	31	19.88574	29.44727
13.95285	27	19.99609	31.19824
13.96087	38	20.12012	33.15918
13.9689	34	20.24414	35.32031
13.97692	41	20.36133	37.68066
13.98495	27	20.47461	40.23926
13.99298	44	20.5791	42.98633
14.001	50	20.67871	45.91602
14.00903	52	20.77637	49.01465
14.01705	51	20.86914	52.25879
14.02508	44	20.95996	55.62207
14.0331	53	21.04199	59.06738
14.04113	64	21.11816	62.55957
14.04916	61	21.19434	66.0625
14.05718	75	21.27539	69.53516
14.06521	61	21.34766	72.91309
14.07323	66	21.41797	76.15332
14.08126	72	21.47754	79.19531
14.08928	90	21.53125	81.99316
14.09731	97	21.57129	84.48926
14.10533	89	21.60449	86.64355
14.11336	75	21.63672	88.4248
14.12139	83	21.7998	89.92676
14.12941	91	21.94922	90.97852
14.13744	95	22.09082	91.56836
14.14546	91	22.21875	91.67871
14.15349	100	22.34082	91.31641
14.16151	88	22.45898	90.49219
14.16954	101	22.5752	89.22559
14.17756	90	22.69141	87.54297
14.18559	79	22.80762	85.48047
14.19362	83	22.92285	83.07617
14.20164	91	23.0332	80.37402
14.20967	98	23.1416	77.42578
14.21769	74	23.24805	74.2832
14.22572	78	23.35254	71.00293
14.23374	79	23.45703	67.6377
14.24177	60	23.55664	64.23438
14.24979	61	23.65332	60.8457
14.25782	61	23.74512	57.51367
14.26585	58	23.83398	54.2793
14.27387	54	23.92383	51.17969
14.2819	56	24.00977	48.23828
14.28992	37	24.09277	45.47852
14.29795	46	24.17578	42.91992
14.30597	43	24.25586	40.56836
14.314	42	24.33301	38.42969
14.32203	37	24.40527	36.50098
14.33005	42	24.47656	34.78125
14.33808	27	24.54688	33.26563
14.3461	42	24.66602	31.99023
14.35413	27	24.78613	30.89648
14.36215	29	24.90625	29.96777
14.37018	31	25.02637	29.19043
14.3782	25	25.1416	28.54395
14.38623	30	25.25098	28.0127
14.39426	19	25.36133	27.58691
14.40228	24	25.47559	27.25781
14.41031	27	25.58594	27.00488
14.41833	31	25.69531	26.81836
14.42636	29	25.79883	26.68262
14.43438	22	25.90039	26.59375
14.44241	31	25.99023	26.53223
14.45043	35	26.0752	26.49902
14.45846	24	26.16016	26.49316
14.46649	30	26.27344	26.53906
14.47451	28	26.3877	26.60352
14.48254	25	26.49707	26.67871
14.49056	26	26.59863	26.75977
14.49859	23	26.69336	26.84668
14.50661	38	26.78613	26.94043
14.51464	26	26.87402	27.04004
14.52267	29	26.95508	27.1416
14.53069	24	27.03223	27.25
14.53872	29	27.10547	27.36426
14.54674	27	27.17578	27.4873
14.55477	25	27.24707	27.62207
14.56279	36	27.38477	27.83789
14.57082	29	27.52246	28.06836
14.57885	23	27.66016	28.31543
14.58687	37	27.79883	28.58203
14.5949	23	27.97363	28.90625
14.60292	25	28.14941	29.25293
14.61095	24	28.32617	29.625
14.61897	35	28.50293	30.02441
14.627	30	28.69238	30.46777
14.63502	26	28.87793	30.93945
14.64305	29	29.04492	31.42871
14.65108	27	29.20313	31.94824
14.6591	44	29.36133	32.51074
14.66713	33	29.51074	33.11035
14.67515	29	29.64844	33.74902
14.68318	44	29.78613	34.44238
14.6912	34	29.97852	35.25
14.69923	46	30.16699	36.11914
14.70725	39	30.33789	37.04102
14.71528	36	30.49219	38.02246
14.72331	34	30.6377	39.07715
14.73133	35	30.77148	40.20801
14.73936	31	30.89844	41.42578
14.74738	42	31.02637	42.74219
14.75541	41	31.22949	44.23828
14.76343	52	31.42578	45.83496
14.77146	34	31.60156	47.51953
14.77948	46	31.75781	49.29492
14.78751	56	31.90527	51.16992
14.79554	53	32.03809	53.13574
14.80356	51	32.16504	55.19238
14.81159	65	32.29102	57.33887
14.81961	61	32.49805	59.63965
14.82764	64	32.7041	62
14.83566	60	32.9082	64.39844
14.84369	51	33.09375	66.79395
14.85172	92	33.26855	69.1709
14.85974	72	33.43848	71.50586
14.86777	77	33.60547	73.76953
14.87579	81	33.76953	75.93262
14.88382	87	33.93359	77.96191
14.89184	74	34.09766	79.82715
14.89987	82	34.26074	81.49707
14.90789	80	34.4248	82.94336
14.91592	84	34.61328	84.16309
14.92395	89	34.80176	85.11133
14.93197	99	34.97461	85.75293
14.94	89	35.13574	86.08203
14.94802	74	35.29102	86.09766
14.95605	68	35.43457	85.79297
14.96407	87	35.57227	85.18066
14.9721	71	35.70996	84.2793
14.98012	87	35.92188	83.17969
14.98815	78	36.12695	81.8252
14.99618	88	36.30469	80.22363
15.0042	67	36.46582	78.41699
15.01223	101	36.62012	76.44727
15.02025	66	36.75781	74.34277
15.02828	76	36.88867	72.14746
15.0363	69	37.01855	69.90723
15.04433	64	37.23535	67.74121
15.05235	71	37.44531	65.58984
15.06038	80	37.65234	63.48633
15.06841	67	37.84082	61.44141
15.07643	58	38.01855	59.48535
15.08446	59	38.19238	57.6416
15.09248	73	38.36523	55.92578
15.10051	50	38.53027	54.34277
15.10853	56	38.69141	52.90039
15.11656	61	38.85254	51.60254
15.12459	62	39.01172	50.44727
15.13261	43	39.17285	49.43164
15.14064	55	39.36621	48.58008
15.14866	62	39.55957	47.85059
15.15669	54	39.73926	47.21875
15.16471	48	39.90918	46.67773
15.17274	51	40.07324	46.21973
15.18076	31	40.22754	45.8291
15.18879	40	40.37695	45.50098
15.19682	55	40.52734	45.22852
15.20484	38	40.73633	45.06348
15.21287	48	40.94043	44.93262
15.22089	54	41.12207	44.80957
15.22892	42	41.29199	44.7002
15.23694	51	41.45801	44.6084
15.24497	41	41.61035	44.52148
15.253	33	41.75781	44.44238
15.26102	47	41.9043	44.37695
15.26905	42	42.10547	44.37695
15.27707	52	42.29688	44.37793
15.2851	55	42.4834	44.38672
15.29312	41	42.66797	44.4082
15.30115	38	42.85156	44.44238
15.30917	41	43.03516	44.49414
15.3172	51	43.20898	44.55566
15.32523	36	43.37695	44.63477
15.33325	37	43.5459	44.74219
15.34128	51	43.71875	44.8877
15.3493	42	43.88867	45.07129
15.35733	44	44.05859	45.30371
15.36535	45	44.22949	45.59766
15.37338	64	44.40039	45.96582
15.3814	56	44.58203	46.43457
15.38943	36	44.75391	47.00293
15.39746	42	44.92578	47.70703
15.40548	60	45.1084	48.58496
15.41351	55	45.28125	49.65234
15.42153	53	45.4541	50.95801
15.42956	39	45.64746	52.57031
15.43758	42	45.83691	54.52148
15.44561	63	46.01758	56.86523
15.45364	59	46.19434	59.67676
15.46166	61	46.36816	63.03711
15.46969	70	46.53809	67.02832
15.47771	70	46.7041	71.74414
15.48574	102	46.87109	77.28711
15.49376	84	47.05664	83.7793
15.50179	105	47.23828	91.30469
15.50981	120	47.41797	99.97656
15.51784	132	47.5957	109.9004
15.52587	139	47.77246	121.1836
15.53389	137	47.94922	133.9268
15.54192	162	48.12695	148.2168
15.54994	162	48.30078	164.125
15.55797	204	48.47461	181.7109
15.56599	212	48.64844	201.0107
15.57402	218	48.82227	222.0332
15.58204	230	48.99219	244.7578
15.59007	277	49.16113	269.1348
15.5981	305	49.33008	295.0801
15.60612	339	49.51367	322.4844
15.61415	382	49.69336	351.168
15.62217	383	49.87305	380.9346
15.6302	394	50.05566	411.5479
15.63822	445	50.23633	442.7275
15.64625	448	50.41699	474.165
15.65427	504	50.5957	505.5205
15.6623	522	50.77246	536.4287
15.67033	554	50.94824	566.5078
15.67835	608	51.12305	595.3633
15.68638	640	51.29785	622.5977
15.6944	658	51.47168	647.8174
15.70243	699	51.64453	670.6416
15.71045	667	51.81641	690.7129
15.71848	727	51.98828	707.7109
15.72651	697	52.1582	721.3467
15.73453	752	52.32715	731.3857
15.74256	805	52.49316	737.6465
15.75058	790	52.65723	740.0098
15.75861	799	52.82227	738.4219
15.76663	720	53	732.9053
15.77466	699	53.16895	723.5195
15.78268	683	53.33887	710.415
15.79071	669	53.5127	693.8037
15.79874	678	53.68555	673.9434
15.80676	629	53.85742	651.1494
15.81479	645	54.03613	625.7861
15.82281	565	54.21484	598.2363
15.83084	544	54.38965	568.9102
15.83886	532	54.56348	538.2373
15.84689	480	54.73145	506.6426
15.85491	431	54.89844	474.5518
15.86294	449	55.06445	442.3701
15.87097	436	55.24023	410.4883
15.87899	370	55.41602	379.2432
15.88702	348	55.58105	348.9355
15.89504	283	55.74121	319.8369
15.90307	259	55.90234	292.1748
15.91109	243	56.07813	266.1406
15.91912	255	56.25195	241.8477
15.92715	224	56.41504	219.3721
15.93517	193	56.57324	198.7637
15.9432	195	56.73047	180.0361
15.95122	174	56.91016	163.1836
15.95925	127	57.08203	148.1221
15.96727	123	57.24609	134.7715
15.9753	122	57.40625	123.0391
15.98333	106	57.56543	112.8174
15.99135	97	57.74902	104.0107
15.99938	101	57.92578	96.46094
16.0074	84	58.09473	90.04199
16.01543	77	58.26074	84.63477
16.02345	81	58.42676	80.12012
16.03148	62	58.60645	76.39941
16.0395	56	58.78516	73.35156
16.04753	72	58.95605	70.87012
16.05556	63	59.12207	68.87305
16.06358	69	59.28809	67.28516
16.07161	61	59.44531	66.02734
16.07963	66	59.59766	65.04492
16.08766	76	59.75	64.29004
16.09568	70	59.91602	63.7334
16.10371	59	60.08203	63.32129
16.11173	70	60.23047	63.00879
16.11976	62	60.37012	62.7793
16.12778	68	60.50977	62.62012
16.13581	65	60.71191	62.57813
16.14384	78	60.91211	62.57617
16.15186	59	61.08887	62.58203
16.15989	61	61.25293	62.60254
16.16791	81	61.41797	62.64355
16.17594	72	61.59766	62.71387
16.18396	62	61.7627	62.78516
16.19199	62	61.92871	62.87012
16.20002	78	62.11523	62.9873
16.20804	70	62.30078	63.11621
16.21607	86	62.47266	63.24414
16.22409	63	62.63574	63.37793
16.23212	73	62.7959	63.52539
16.24014	70	62.95313	63.68945
16.24817	67	63.11133	63.87402
16.2562	70	63.28027	64.09277
16.26422	75	63.44629	64.33594
16.27225	65	63.60059	64.59766
16.28027	60	63.74707	64.88867
16.2883	86	63.89453	65.21875
16.29632	76	64.06055	65.61133
16.30435	73	64.22363	66.0498
16.31237	72	64.37207	66.53027
16.3204	71	64.51465	67.06445
16.32842	75	64.65332	67.66211
16.33645	62	64.78516	68.3252
16.34448	64	64.91309	69.06348
16.3525	81	65.04102	69.88672
16.36053	82	65.26172	70.89063
16.36855	69	65.47559	71.98438
16.37658	75	65.66406	73.15039
16.38461	72	65.83887	74.40625
16.39263	73	66.01465	75.76563
16.40066	73	66.19531	77.23438
16.40868	72	66.36035	78.79199
16.41671	75	66.52539	80.45117
16.42473	91	66.72168	82.23828
16.43276	92	66.91602	84.11523
16.44078	84	67.09277	86.05859
16.44881	71	67.26074	88.06543
16.45683	98	67.4248	90.12988
16.46486	88	67.58594	92.24023
16.47289	102	67.74805	94.38184
16.48091	109	67.9082	96.53516
16.48894	100	68.06348	98.68066
16.49696	102	68.20605	100.79
16.50499	103	68.34277	102.8477
16.51301	104	68.47949	104.8389
16.52104	101	68.64453	106.7705
16.52907	95	68.80859	108.5928
16.53709	113	68.94434	110.2568
16.54512	107	69.06641	111.7578
16.55314	102	69.18066	113.084
16.56117	101	69.29199	114.2236
16.56919	121	69.4043	115.166
16.57722	139	69.55273	115.9375
16.58525	142	69.79199	116.5811
16.59327	131	70.02441	116.9961
16.6013	112	70.22754	117.1553
16.60932	121	70.41504	117.0762
16.61735	122	70.60352	116.7773
16.62537	113	70.78516	116.2607
16.6334	121	70.95117	115.5273
16.64142	95	71.11816	114.6064
16.64945	126	71.32813	113.5566
16.65747	96	71.53418	112.3486
16.6655	122	71.72266	110.9873
16.67353	84	71.90039	109.5029
16.68155	118	72.07227	107.9189
16.68958	99	72.24121	106.2598
16.6976	120	72.40723	104.5508
16.70563	112	72.56348	102.8008
16.71365	97	72.71387	101.0361
16.72168	98	72.85156	99.26758
16.72971	80	72.98242	97.51758
16.73773	118	73.11328	95.80957
16.74576	102	73.27734	94.18652
16.75378	91	73.44043	92.62988
16.76181	93	73.56543	91.10742
16.76983	100	73.66992	89.64746
16.77786	97	73.76367	88.26172
16.78588	79	73.85059	86.95996
16.79391	78	73.93848	85.75098
16.80194	85	74.12109	84.73047
16.80996	91	74.38086	83.87891
16.81799	75	74.63379	83.11133
16.82601	106	74.85547	82.40137
16.83404	65	75.06152	81.76074
16.84206	82	75.26855	81.20215
16.85009	94	75.4541	80.7002
16.85811	63	75.62402	80.25488
16.86614	85	75.79395	79.87891
16.87417	70	76.01953	79.62109
16.88219	92	76.2373	79.41504
16.89022	74	76.43848	79.24609
16.89824	66	76.63184	79.11816
16.90627	85	76.8125	79.02148
16.91429	90	76.98633	78.95898
16.92232	82	77.1582	78.92969
16.93035	103	77.31836	78.91992
16.93837	76	77.47363	78.93359
16.9464	75	77.61328	78.9541
16.95442	83	77.74414	78.9873
16.96245	82	77.875	79.03809
16.97047	74	78.03516	79.13086
16.9785	81	78.19434	79.23535
16.98652	95	78.30957	79.30273
16.99455	69	78.40234	79.35547
17.00257	84	78.47852	79.39746
17.0106	78	78.54785	79.43359
17.01863	71	78.61621	79.47266
17.02665	78	78.83398	79.66016
17.03468	80	79.16113	79.95801
17.0427	86	79.47168	80.23828
17.05073	83	79.75195	80.4873
17.05876	73	80.01855	80.7207
17.06678	79	80.28516	80.9541
17.07481	80	80.52344	81.15723
17.08283	93	80.74609	81.34375
17.09086	73	80.96875	81.5293
17.09888	96	81.21289	81.73535
17.10691	84	81.45313	81.9375
17.11493	90	81.68457	82.13086
17.12296	97	81.9082	82.31738
17.13099	88	82.12305	82.49512
17.13901	88	82.33301	82.66895
17.14704	69	82.53223	82.83496
17.15506	81	82.72754	82.99805
17.16309	74	82.91992	83.16016
17.17111	107	83.10547	83.31836
17.17914	91	83.28906	83.47656
17.18716	99	83.47266	83.63672
17.19519	63	83.65723	83.7998
17.20322	82	83.84082	83.96484
17.21124	103	84.00391	84.11133
17.21927	84	84.15625	84.25
17.22729	89	84.2832	84.36523
17.23532	78	84.39746	84.47168
17.24334	97	84.51172	84.58008
17.25137	87	84.84863	84.91504
17.2594	92	85.1543	85.22266
17.26742	109	85.44434	85.51855
17.27545	80	85.70801	85.79297
17.28347	81	85.95898	86.06055
17.2915	94	86.20313	86.3291
17.29952	102	86.44434	86.60547
17.30755	94	86.68457	86.89258
17.31557	76	86.9248	87.19434
17.3236	99	87.16602	87.51465
17.33162	85	87.39551	87.84863
17.33965	80	87.62109	88.20508
17.34768	99	87.83398	88.58496
17.3557	92	88.04004	89.00098
17.36373	100	88.24414	89.46484
17.37175	89	88.44141	89.98535
17.37978	90	88.63477	90.57617
17.3878	119	88.81445	91.23828
17.39583	102	88.98535	91.99414
17.40386	106	89.15723	92.86914
17.41188	114	89.38574	93.93652
17.41991	112	89.60547	95.14941
17.42793	115	89.80078	96.51367
17.43596	117	89.98047	98.05762
17.44398	116	90.15234	99.81152
17.45201	116	90.29395	101.7715
17.46004	101	90.41895	103.9727
17.46806	131	90.54395	106.4502
17.47609	121	90.8877	109.4375
17.48411	125	91.20801	112.7051
17.49214	129	91.50391	116.2617
17.50016	131	91.76563	120.0996
17.50819	140	92.00977	124.2363
17.51621	129	92.24023	128.6641
17.52424	150	92.46289	133.373
17.53226	136	92.68457	138.3477
17.54029	144	92.90723	143.5566
17.54832	151	93.12891	148.959
17.55634	149	93.35156	154.5078
17.56437	158	93.57422	160.1455
17.57239	150	93.7998	165.8154
17.58042	171	94.01758	171.4346
17.58844	183	94.22949	176.9346
17.59647	179	94.43262	182.2354
17.6045	212	94.63086	187.2646
17.61252	208	94.80566	191.9277
17.62055	192	94.96973	196.1631
17.62857	173	95.13379	199.9121
17.6366	215	95.38379	203.2002
17.64462	222	95.62891	205.8828
17.65265	202	95.83887	207.8848
17.66068	217	96.03027	209.1943
17.6687	222	96.22168	209.8096
17.67673	191	96.39551	209.7061
17.68475	230	96.55078	208.8926
17.69278	210	96.70703	207.4082
17.7008	204	97.00879	205.4336
17.70883	219	97.30566	202.8613
17.71685	210	97.57129	199.7236
17.72488	184	97.82129	196.1006
17.7329	227	98.05371	192.0596
17.74093	199	98.27637	187.6865
17.74896	175	98.5	183.0723
17.75698	178	98.71973	178.291
17.76501	157	98.92871	173.416
17.77303	163	99.12109	168.5156
17.78106	159	99.30469	163.6699
17.78909	157	99.48828	158.9531
17.79711	150	99.75195	154.501
17.80514	144	100.0059	150.2725
17.81316	157	100.2422	146.3008
17.82119	150	100.459	142.6152
17.82921	133	100.666	139.2461
17.83724	139	100.8613	136.2061
17.84526	123	101.0518	133.5039
17.85329	147	101.2422	131.1445
17.86131	127	101.459	129.1416
17.86934	125	101.6768	127.4531
17.87737	126	101.8701	126.0332
17.88539	117	102.0469	124.8643
17.89342	112	102.2236	123.9346
17.90144	130	102.4346	123.248
17.90947	113	102.6465	122.7402
17.91749	122	102.9092	122.4277
17.92552	106	103.1533	122.2129
17.93355	114	103.3887	122.0742
17.94157	131	103.6201	121.9893
17.9496	113	103.8516	121.9385
17.95762	117	104.0654	121.8818
17.96565	121	104.2695	121.8066
17.97367	112	104.4736	121.708
17.9817	105	104.7129	121.6084
17.98973	127	104.9414	121.4531
17.99775	132	105.1465	121.2236
18.00578	139	105.3389	120.9277
18.0138	110	105.5322	120.5781
18.02183	129	105.7734	120.2246
18.02985	130	106.0107	119.8193
18.03788	114	106.2158	119.3408
18.0459	128	106.4053	118.8105
18.05393	110	106.5957	118.2539
18.06195	133	106.8223	117.7168
18.06998	122	107.042	117.1631
18.07801	125	107.2422	116.5889
18.08603	122	107.4336	116.0146
18.09406	131	107.625	115.4551
18.10208	107	107.8096	114.9121
18.11011	96	107.9746	114.3779
18.11813	116	108.1396	113.877
18.12616	117	108.4248	113.5342
18.13419	116	108.7021	113.2256
18.14221	122	108.9551	112.9336
18.15024	128	109.1934	112.6729
18.15826	114	109.4219	112.4453
18.16629	122	109.6445	112.2568
18.17431	113	109.8682	112.1104
18.18234	133	110.0918	112.0039
18.19036	109	110.3066	111.9297
18.19839	115	110.5186	111.8867
18.20642	124	110.7275	111.875
18.21444	100	110.9375	111.8936
18.22247	105	111.1582	111.9502
18.23049	116	111.3691	112.0234
18.23852	124	111.5801	112.1182
18.24654	115	111.8008	112.2412
18.25457	121	112.0186	112.3799
18.26259	112	112.2119	112.5088
18.27062	111	112.3926	112.6387
18.27865	106	112.5742	112.7813
18.28667	112	112.8213	113
18.2947	119	113.0693	113.2285
18.30272	110	113.2793	113.4287
18.31075	120	113.4717	113.6191
18.31877	117	113.6641	113.8164
18.3268	101	113.8516	114.0186
18.33483	105	114.0371	114.2256
18.34285	131	114.2227	114.4414
18.35088	111	114.5957	114.8555
18.3589	119	114.9629	115.2715
18.36693	131	115.3037	115.6729
18.37495	108	115.6318	116.0723
18.38298	116	115.9531	116.4785
18.391	110	116.2715	116.8945
18.39903	123	116.5879	117.3252
18.40705	111	116.8936	117.7607
18.41508	126	117.1934	118.209
18.42311	124	117.4844	118.666
18.43113	119	117.7705	119.1377
18.43916	115	118.0566	119.6289
18.44718	141	118.3477	120.1455
18.45521	118	118.624	120.668
18.46323	115	118.9014	121.2109
18.47126	140	119.2002	121.7939
18.47929	119	119.4922	122.3887
18.48731	106	119.7588	122.9736
18.49534	111	120.0127	123.5605
18.50336	137	120.2666	124.1582
18.51139	114	120.5986	124.8418
18.51941	126	120.9268	125.5254
18.52744	124	121.2207	126.1758
18.53547	130	121.499	126.8057
18.54349	135	121.7764	127.4268
18.55152	124	122.0283	128.0088
18.55954	114	122.2627	128.5537
18.56757	150	122.4971	129.0762
18.57559	138	122.8809	129.7207
18.58362	132	123.2529	130.3213
18.59164	113	123.6064	130.8672
18.59967	136	123.9453	131.3594
18.6077	121	124.2744	131.8008
18.61572	131	124.5957	132.1914
18.62375	127	124.9141	132.5342
18.63177	131	125.2227	132.8213
18.6398	108	125.5264	133.0596
18.64782	139	125.8271	133.2529
18.65585	119	126.1279	133.4043
18.66388	131	126.4287	133.5166
18.6719	133	126.7324	133.5986
18.67993	154	127.0264	133.6387
18.68795	138	127.3193	133.6523
18.69598	127	127.624	133.6553
18.704	134	127.9248	133.6387
18.71203	130	128.2021	133.5859
18.72005	113	128.4688	133.5146
18.72808	129	128.7344	133.4424
18.7361	148	129.0762	133.4473
18.74413	130	129.4043	133.4463
18.75216	151	129.708	133.4307
18.76018	121	129.999	133.417
18.76821	125	130.291	133.4209
18.77623	133	130.5576	133.4189
18.78426	146	130.8096	133.4219
18.79228	134	131.0615	133.4473
18.80031	115	131.4385	133.6201
18.80834	129	131.8047	133.8047
18.81636	138	132.1611	134.002
18.82439	127	132.5049	134.21
18.83241	144	132.8379	134.4268
18.84044	134	133.166	134.6572
18.84846	146	133.4873	134.9004
18.85649	118	133.8047	135.1553
18.86452	144	134.1201	135.4229
18.87254	139	134.4307	135.6973
18.88057	167	134.7383	135.9795
18.88859	135	135.0469	136.2705
18.89662	130	135.3535	136.5674
18.90464	138	135.6563	136.8643
18.91267	141	135.9551	137.1602
18.92069	141	136.252	137.4551
18.92872	140	136.5488	137.75
18.93674	128	136.8506	138.0488
18.94477	156	137.1396	138.333
18.9528	137	137.4297	138.6152
18.96082	134	137.7529	138.9268
18.96885	148	138.0645	139.2217
18.97687	133	138.3467	139.4834
18.9849	143	138.6143	139.7266
18.99292	138	138.8828	139.9648
19.00095	140	139.2588	140.3076
19.00898	126	139.5869	140.5977
19.017	138	139.915	140.8848
19.02503	145	140.3623	141.2871
19.03305	123	140.79	141.6689
19.04108	147	141.1924	142.0225
19.0491	156	141.5811	142.3613
19.05713	144	141.9697	142.7002
19.06516	163	142.373	143.0527
19.07318	145	142.7725	143.4023
19.08121	140	143.1465	143.7275
19.08923	137	143.5098	144.043
19.09726	135	143.873	144.3604
19.10528	148	144.249	144.6934
19.11331	154	144.6055	145.0088
19.12133	154	144.9629	145.3271
19.12936	154	145.3193	145.6484
19.13738	138	145.6768	145.9736
19.14541	148	146.0283	146.2949
19.15344	168	146.3408	146.5811
19.16146	138	146.6533	146.8691
19.16949	157	147.1641	147.3584
19.17751	142	147.6699	147.8457
19.18554	141	148.1309	148.2891
19.19357	160	148.5684	148.7129
19.20159	153	148.9668	149.0986
19.20962	128	149.3447	149.4658
19.21764	147	149.7236	149.835
19.22567	157	150.1729	150.2764
19.23369	155	150.5811	150.6777
19.24172	142	150.9893	151.0811
19.24974	162	151.4111	151.499
19.25777	160	151.833	151.917
19.26579	169	152.1953	152.2764
19.27382	163	152.5273	152.6064
19.28185	149	152.8604	152.9375
19.28987	147	153.3652	153.4404
19.2979	165	153.8418	153.916
19.30592	169	154.251	154.3242
19.31395	145	154.626	154.6992
19.32197	150	155.002	155.0742
19.33	150	155.4648	155.5371
19.33803	165	155.8799	155.9512
19.34605	169	156.2959	156.3672
19.35408	166	156.7266	156.7979
19.3621	166	157.1582	157.2295
19.37013	155	157.6182	157.6885
19.37815	151	158.0391	158.1104
19.38618	165	158.4385	158.5088
19.39421	164	158.8262	158.8975
19.40223	173	159.2148	159.2852
19.41026	165	159.6621	159.7324
19.41828	156	160.0938	160.1641
19.42631	158	160.499	160.5693
19.43433	176	160.8916	160.9619
19.44236	168	161.2842	161.3545
19.45038	170	161.6689	161.7393
19.45841	153	162.0146	162.084
19.46643	137	162.3604	162.4297
19.47446	165	162.7354	162.8047
19.48249	157	163.1016	163.1709
19.49051	177	163.3643	163.4346
19.49854	175	163.5742	163.6445
19.50656	176	163.7842	163.8555
19.51459	163	164.71	164.7813
19.52261	159	165.5898	165.6611
19.53064	164	166.417	166.4893
19.53867	182	167.1943	167.2666
19.54669	172	167.9473	168.0215
19.55472	170	168.6738	168.748
19.56274	156	169.3867	169.4629
19.57077	164	170.1016	170.1777
19.57879	181	170.7998	170.8779
19.58682	161	171.4912	171.5713
19.59484	197	172.1533	172.2354
19.60287	171	172.8008	172.8848
19.6109	187	173.4492	173.5361
19.61892	203	174.166	174.2568
19.62695	158	174.8828	174.9766
19.63497	147	175.5479	175.6455
19.643	163	176.1875	176.29
19.65102	183	176.8291	176.9355
19.65905	187	177.6201	177.7334
19.66707	205	178.3936	178.5127
19.6751	191	179.1211	179.2461
19.68313	186	179.8242	179.958
19.69115	176	180.5303	180.6719
19.69918	199	181.2607	181.4121
19.7072	201	181.9785	182.1396
19.71523	185	182.6816	182.8545
19.72325	192	183.3789	183.5645
19.73128	197	184.0703	184.2705
19.73931	175	184.7598	184.9756
19.74733	208	185.4492	185.6816
19.75536	203	186.1387	186.3896
19.76338	178	186.8291	187.1016
19.77141	185	187.5703	187.8652
19.77943	202	188.293	188.6123
19.78746	188	189.0088	189.3555
19.79548	183	189.6963	190.0723
19.80351	167	190.3711	190.7793
19.81153	180	190.9873	191.4316
19.81956	180	191.5762	192.0586
19.82759	188	192.165	192.6895
19.83561	212	193.2285	193.7988
19.84364	201	194.2588	194.8789
19.85166	207	195.2578	195.9316
19.85969	201	196.2148	196.9473
19.86771	219	197.123	197.9189
19.87574	200	198.0078	198.873
19.88377	214	198.8691	199.8086
19.89179	188	199.709	200.7295
19.89982	205	200.5391	201.6465
19.90784	212	201.3379	202.541
19.91587	200	202.1221	203.4268
19.92389	204	202.9082	204.3232
19.93192	201	203.9014	205.4355
19.93995	255	204.8799	206.543
19.94797	199	205.8477	207.6484
19.956	211	206.7656	208.7158
19.96402	233	207.6611	209.7715
19.97205	190	208.5342	210.8174
19.98007	196	209.3984	211.8672
19.9881	229	210.2578	212.9258
19.99612	218	211.1172	213.998
20.00415	237	211.9775	215.0879
20.01218	184	212.7861	216.1426
20.0202	217	213.5674	217.1865
20.02823	203	214.3496	218.251
20.03625	224	215.417	219.6191
20.04428	216	216.4629	220.9883
20.0523	236	217.4355	222.3047
20.06033	203	218.3701	223.6074
20.06836	221	219.3076	224.9365
20.07638	226	220.2656	226.3135
20.08441	211	221.2012	227.6953
20.09243	225	222.1377	229.1064
20.10046	231	223.0967	230.5713
20.10848	237	224.0498	232.0615
20.11651	248	224.9727	233.5557
20.12453	227	225.8818	235.0723
20.13256	254	226.792	236.627
20.14058	258	227.7148	238.2324
20.14861	219	228.625	239.8682
20.15664	246	229.5371	241.5479
20.16466	214	230.4404	243.2637
20.17269	263	231.3398	245.0225
20.18071	253	232.2275	246.8193
20.18874	285	233.1113	248.6631
20.19676	263	233.9961	250.5625
20.20479	248	234.8799	252.5166
20.21282	283	235.7559	254.5215
20.22084	273	236.627	256.583
20.22887	248	237.4932	258.7021
20.23689	247	238.3564	260.8848
20.24492	260	239.2139	263.1289
20.25294	290	240.0635	265.4375
20.26097	260	240.9102	267.8154
20.269	257	241.749	270.2627
20.27702	275	242.5811	272.7822
20.28505	284	243.4082	275.3779
20.29307	324	244.2285	278.0508
20.3011	300	245.0459	280.8096
20.30912	286	245.8613	283.6553
20.31715	299	246.6699	286.5869
20.32517	285	247.4756	289.6104
20.3332	286	248.2725	292.7236
20.34122	326	249.0586	295.9277
20.34925	313	249.8369	299.2256
20.35728	335	250.6074	302.623
20.3653	333	251.373	306.124
20.37333	301	252.1279	309.7266
20.38135	318	252.8789	313.4375
20.38938	337	253.6221	317.2568
20.3974	347	254.3613	321.1924
20.40543	373	255.0947	325.2412
20.41346	353	255.8164	329.4014
20.42148	339	256.5313	333.6807
20.42951	365	257.2402	338.0811
20.43753	356	257.9404	342.6016
20.44556	351	258.6387	347.25
20.45358	389	259.3311	352.0244
20.46161	361	260.0195	356.9297
20.46964	379	260.7031	361.9639
20.47766	371	261.377	367.125
20.48569	383	262.0459	372.418
20.49371	373	262.707	377.8408
20.50174	384	263.3594	383.3916
20.50976	408	264.0078	389.0771
20.51779	415	264.6494	394.8945
20.52581	413	265.2861	400.8457
20.53384	414	265.9219	406.9316
20.54186	401	266.5488	413.1475
20.54989	435	267.1719	419.4951
20.55792	389	267.7832	425.9658
20.56594	464	268.3828	432.5566
20.57397	450	268.9717	439.2695
20.58199	437	269.5508	446.1025
20.59002	457	270.126	453.0576
20.59804	491	270.6875	460.124
20.60607	522	271.2432	467.3047
20.6141	463	271.7891	474.5947
20.62212	543	272.3291	481.9922
20.63015	525	272.8574	489.4893
20.63817	518	273.3721	497.0781
20.6462	529	273.8799	504.7607
20.65422	513	274.3809	512.5332
20.66225	531	274.8721	520.3877
20.67027	527	275.3584	528.3232
20.6783	571	275.8379	536.3311
20.68633	550	276.3135	544.4082
20.69435	513	276.7832	552.5469
20.70238	561	277.2422	560.7354
20.7104	585	277.6953	568.9697
20.71843	590	278.1377	577.2402
20.72645	535	278.5703	585.5391
20.73448	625	278.998	593.8623
20.74251	589	279.418	602.2012
20.75053	596	279.835	610.5498
20.75856	620	280.248	618.8984
20.76658	602	280.6504	627.2324
20.77461	634	281.0479	635.5488
20.78263	661	281.4316	643.8291
20.79066	633	281.8018	652.0645
20.79869	680	282.1602	660.2461
20.80671	668	282.5098	668.3672
20.81474	626	282.8535	676.4219
20.82276	654	283.1816	684.3896
20.83079	660	283.5029	692.2695
20.83881	711	283.8135	700.0488
20.84684	678	284.1152	707.7178
20.85486	705	284.4053	715.2627
20.86289	693	284.6807	722.6719
20.87091	679	284.9473	729.9404
20.87894	734	285.207	737.0615
20.88697	754	285.4551	744.0195
20.89499	738	285.6982	750.8115
20.90302	745	285.9326	757.4238
20.91104	712	286.1641	763.8525
20.91907	703	286.3926	770.0879
20.92709	769	286.6074	776.1123
20.93512	769	286.8164	781.9219
20.94315	785	287.0137	787.5039
20.95117	761	287.1982	792.8477
20.9592	789	287.3779	797.9531
20.96722	811	287.5488	802.8105
20.97525	773	287.7158	807.415
20.98327	742	287.8779	811.7578
20.9913	852	288.0303	815.8301
20.99932	813	288.1768	819.627
21.00735	786	288.3086	823.1357
21.01538	822	288.4287	826.3516
21.0234	782	288.5342	829.2686
21.03143	826	288.6309	831.8867
21.03945	802	288.7236	834.2061
21.04748	838	288.7998	836.2109
21.0555	810	288.8682	837.9082
21.06353	835	288.9268	839.291
21.07155	849	288.9756	840.3584
21.07958	768	289.0127	841.1064
21.08761	817	289.0342	841.5303
21.09563	834	289.0488	841.6377
21.10366	840	289.0557	841.4268
21.11168	837	289.0518	840.8965
21.11971	819	289.042	840.0518
21.12773	936	289.0254	838.8916
21.13576	815	289.0039	837.4229
21.14379	793	288.9795	835.6484
21.15181	777	288.9463	833.5645
21.15984	859	288.9043	831.1758
21.16786	806	288.8535	828.4863
21.17589	871	288.79	825.4941
21.18391	807	288.7188	822.2119
21.19194	847	288.6426	818.6465
21.19996	831	288.5596	814.8008
21.20799	789	288.4697	810.6826
21.21601	794	288.3711	806.2949
21.22404	835	288.2646	801.6475
21.23207	850	288.1484	796.7451
21.24009	821	288.0205	791.5918
21.24812	825	287.877	786.1934
21.25614	822	287.7246	780.5645
21.26417	835	287.5654	774.7139
21.27219	776	287.3965	768.6494
21.28022	803	287.2217	762.3838
21.28825	780	287.04	755.9248
21.29627	771	286.8467	749.2783
21.3043	806	286.6455	742.4551
21.31232	792	286.4277	735.459
21.32035	748	286.2021	728.3066
21.32837	733	285.9707	721.0098
21.3364	758	285.7285	713.5762
21.34443	702	285.4814	706.0195
21.35245	708	285.2275	698.3486
21.36048	793	284.9697	690.5771
21.3685	714	284.709	682.7148
21.37653	717	284.4346	674.7607
21.38455	712	284.1523	666.7334
21.39258	711	283.8662	658.6436
21.4006	641	283.5742	650.501
21.40863	659	283.2793	642.3184
21.41666	677	282.9727	634.0957
21.42468	640	282.6621	625.8506
21.43271	617	282.3438	617.5889
21.44073	623	282.0156	609.3164
21.44876	631	281.6826	601.0469
21.45678	615	281.3398	592.7852
21.46481	576	280.9893	584.542
21.47284	578	280.626	576.3203
21.48086	564	280.2568	568.1338
21.48889	621	279.8838	559.9932
21.49691	575	279.5	551.8994
21.50494	549	279.1104	543.8652
21.51296	501	278.7188	535.9004
21.52099	510	278.3193	528.0049
21.52901	527	277.9092	520.1865
21.53704	502	277.4883	512.4502
21.54506	520	277.0625	504.8066
21.55309	495	276.6309	497.2656
21.56112	484	276.1875	489.8242
21.56914	418	275.7363	482.4961
21.57717	461	275.2803	475.29
21.58519	452	274.8193	468.2148
21.59322	457	274.3506	461.2754
21.60124	446	273.8779	454.4863
21.60927	464	273.3994	447.8525
21.6173	479	272.9092	441.3799
21.62532	428	272.4131	435.0879
21.63335	423	271.9121	428.9893
21.64137	415	271.4082	423.1016
21.6494	404	270.9023	417.4434
21.65742	408	270.3906	412.0273
21.66545	367	269.8691	406.875
21.67348	333	269.3447	402.0137
21.6815	373	268.8135	397.4658
21.68953	351	268.2783	393.2627
21.69755	374	267.7334	389.4316
21.70558	355	267.1836	386.0088
21.7136	357	266.6318	383.0361
21.72163	361	266.0723	380.543
21.72965	363	265.5088	378.5762
21.73768	314	264.9395	377.1748
21.7457	368	264.3672	376.3857
21.75373	358	263.79	376.248
21.76176	329	263.209	376.8066
21.76978	352	262.626	378.1045
21.77781	340	262.0313	380.1719
21.78583	382	261.4307	383.0508
21.79386	345	260.8271	386.7764
21.80188	375	260.2207	391.376
21.80991	415	259.6123	396.8701
21.81794	407	258.9961	403.2686
21.82596	410	258.374	410.5781
21.83399	382	257.749	418.7998
21.84201	406	257.1064	427.9082
21.85004	393	256.457	437.8926
21.85806	396	255.8027	448.7266
21.86609	437	255.1465	460.373
21.87411	434	254.4912	472.7881
21.88214	459	253.8242	485.9053
21.89017	502	253.1504	499.665
21.89819	471	252.4775	514.0078
21.90622	525	251.8037	528.8604
21.91424	576	251.123	544.1416
21.92227	558	250.4297	559.7656
21.93029	514	249.7285	575.6631
21.93832	574	249.0293	591.7627
21.94634	643	248.3711	608.0303
21.95437	618	247.7129	624.3525
21.9624	585	247.0342	640.6387
21.97042	672	246.3369	656.8252
21.97845	651	245.6328	672.8594
21.98647	693	244.9141	688.6738
21.9945	724	244.1885	704.2197
22.00252	708	243.4639	719.4453
22.01055	733	242.749	734.3027
22.01858	765	242.0352	748.7236
22.0266	768	241.3223	762.6445
22.03463	774	240.6104	775.998
22.04265	779	239.9014	788.7129
22.05068	820	239.1621	800.6748
22.0587	839	238.416	811.8193
22.06673	849	237.666	822.0547
22.07475	902	236.916	831.2822
22.08278	809	236.1045	839.333
22.09081	827	235.2646	846.126
22.09883	872	234.4258	851.5762
22.10686	867	233.8545	855.834
22.11488	853	233.2559	858.4951
22.12291	928	232.583	859.4063
22.13093	855	231.8613	858.498
22.13896	888	231.1162	855.7148
22.14699	864	230.3291	850.9736
22.15501	860	229.5225	844.2529
22.16304	849	228.7168	835.5508
22.17106	827	228.0977	825.0576
22.17909	810	227.4629	812.5996
22.18711	781	226.7832	798.207
22.19514	794	226.0732	781.9775
22.20317	691	225.3477	764.0361
22.21119	725	224.5986	744.5098
22.21922	704	223.8379	723.5703
22.22724	712	223.0664	701.3926
22.23527	719	222.2891	678.1768
22.24329	678	221.5098	654.1318
22.25132	658	220.7305	629.4707
22.25934	604	219.9521	604.4111
22.26737	606	219.2256	579.2188
22.27539	544	218.4688	554.0215
22.28342	526	217.6963	529.0332
22.29145	491	216.8887	504.4248
22.29947	489	216.0654	480.3857
22.3075	467	215.1758	457.0215
22.31552	442	214.2549	434.501
22.32355	431	213.3359	412.9707
22.33157	408	212.8574	392.9619
22.3396	366	212.334	374.0596
22.34763	337	211.7441	356.2891
22.35565	318	211.0742	339.667
22.36368	347	210.3652	324.2422
22.3717	311	209.6152	310.0059
22.37973	279	208.8447	296.9561
22.38775	242	208.0762	285.0781
22.39578	272	207.4951	274.5098
22.4038	280	206.9111	265.0049
22.41183	240	206.2725	256.4502
22.41986	246	205.6074	248.8037
22.42788	226	204.9141	241.9951
22.43591	242	204.208	235.9658
22.44393	230	203.4951	230.6523
22.45196	212	202.7451	225.9531
22.45998	214	201.9775	221.8193
22.46801	209	201.1865	218.1826
22.47603	207	200.3838	214.9932
22.48406	209	199.583	212.209
22.49209	210	198.9238	209.918
22.50011	215	198.2471	207.915
22.50814	197	197.5205	206.126
22.51616	186	196.7383	204.5059
22.52419	220	195.9277	203.0508
22.53221	216	195.0518	201.6953
22.54024	184	194.1445	200.4473
22.54827	183	193.2393	199.3193
22.55629	189	193.2402	199.1963
22.56432	203	193.1924	199.1074
22.57234	184	193.083	199.0283
22.58037	202	192.9404	198.9775
22.58839	185	192.7822	198.9609
22.59642	178	192.5977	198.9609
22.60444	203	192.3994	198.9854
22.61247	179	192.2021	199.0439
22.62049	204	192.123	199.25
22.62852	188	192.0273	199.4668
22.63655	218	191.8799	199.6553
22.64457	200	191.7061	199.8389
22.6526	201	191.5322	200.0449
22.66062	211	191.4131	200.3262
22.66865	195	191.29	200.623
22.67667	193	191.1494	200.9229
22.6847	191	190.999	201.2314
22.69273	216	190.8438	201.5537
22.70075	210	190.6758	201.8838
22.70878	192	190.5029	202.2285
22.7168	210	190.3262	202.5898
22.72483	206	190.1484	202.9697
22.73285	223	189.9707	203.3691
22.74088	217	189.792	203.7891
22.74891	218	189.6133	204.2314
22.75693	166	189.4229	204.6826
22.76496	223	189.2256	205.1494
22.77298	207	189.0293	205.6396
22.78101	227	188.8447	206.1641
22.78903	215	188.6514	206.7031
22.79706	202	188.4482	207.2559
22.80508	218	188.2412	207.8281
22.81311	207	188.0332	208.4238
22.82113	228	187.8174	209.0371
22.82916	229	187.5957	209.6689
22.83719	217	187.374	210.3262
22.84521	229	187.1563	211.0127
22.85324	224	186.9326	211.7188
22.86126	238	186.6992	212.4414
22.86929	231	186.46	213.1855
22.87732	218	186.2217	213.9561
22.88534	229	185.9932	214.7627
22.89337	210	185.7598	215.5918
22.90139	233	185.5234	216.4443
22.90942	228	185.2754	217.3125
22.91744	218	185.0225	218.2041
22.92547	219	184.7617	219.1133
22.93349	254	184.4961	220.0459
22.94152	235	184.2285	221.0029
22.94954	218	183.9551	221.9824
22.95757	216	183.6787	222.9854
22.9656	206	183.3887	224.001
22.97362	234	183.0908	225.0361
22.98165	229	182.793	226.0986
22.98967	218	182.541	227.2324
22.9977	241	182.2861	228.3896
23.00572	270	182.0107	229.5518
23.01375	219	181.7256	230.7305
23.02178	266	181.4375	231.9316
23.0298	225	181.1387	233.1445
23.03783	242	180.833	234.377
23.04585	230	180.5283	235.6328
23.05388	260	180.2344	236.9229
23.0619	250	179.9346	238.2305
23.06993	210	179.626	239.5498
23.07796	246	179.3115	240.8857
23.08598	272	178.9951	242.2393
23.09401	251	178.6631	243.5967
23.10203	245	178.3232	244.9658
23.11006	270	177.9844	246.3535
23.11808	242	177.6797	247.793
23.12611	241	177.3721	249.2451
23.13413	257	177.0508	250.6992
23.14216	227	176.7246	252.1621
23.15018	254	176.3877	253.6279
23.15821	270	176.0459	255.1016
23.16624	241	175.7021	256.583
23.17426	261	175.3525	258.0684
23.18229	243	174.999	259.5586
23.19031	245	174.6367	261.0479
23.19834	258	174.2705	262.5381
23.20636	243	173.9053	264.0342
23.21439	270	173.5488	265.543
23.22242	302	173.1885	267.0488
23.23044	255	172.8184	268.5459
23.23847	261	172.4434	270.0371
23.24649	272	172.0674	271.5254
23.25452	276	171.6787	272.9971
23.26254	303	171.2852	274.458
23.27057	271	170.8906	275.9121
23.27859	239	170.5029	277.3633
23.28662	310	170.1064	278.7969
23.29465	276	169.7061	280.2148
23.30267	281	169.2988	281.6133
23.3107	276	168.8906	282.9951
23.31872	289	168.4658	284.3447
23.32675	289	168.0322	285.668
23.33477	303	167.6006	286.9736
23.3428	296	167.2061	288.2959
23.35082	313	166.8105	289.5928
23.35885	272	166.3975	290.8506
23.36688	264	165.9785	292.0742
23.3749	272	165.5537	293.2666
23.38293	294	165.127	294.4268
23.39095	317	164.6992	295.5566
23.39898	301	164.2627	296.6465
23.407	299	163.8242	297.7002
23.41503	313	163.3779	298.7119
23.42306	294	162.9297	299.6846
23.43108	306	162.4814	300.6201
23.43911	278	162.0313	301.5146
23.44713	283	161.5762	302.3633
23.45516	313	161.1143	303.165
23.46318	282	160.6504	303.9199
23.47121	279	160.1846	304.6309
23.47923	295	159.707	305.2832
23.48726	303	159.2227	305.8828
23.49529	301	158.7393	306.4355
23.50331	300	158.2656	306.9492
23.51134	318	157.7813	307.4033
23.51936	299	157.2939	307.8047
23.52739	309	156.8027	308.1494
23.53541	299	156.3096	308.4404
23.54344	306	155.7998	308.6621
23.55147	295	155.2822	308.8213
23.55949	315	154.7646	308.9277
23.56752	291	154.2891	309.0205
23.57554	301	153.8105	309.0547
23.58357	298	153.3145	309.0166
23.59159	309	152.8115	308.9141
23.59962	298	152.3066	308.7539
23.60765	281	151.8018	308.5361
23.61567	305	151.2949	308.2607
23.6237	301	150.7803	307.918
23.63172	292	150.2607	307.5146
23.63975	314	149.7363	307.0488
23.64777	318	149.209	306.5234
23.6558	320	148.6836	305.9424
23.66382	300	148.1494	305.2949
23.67185	288	147.6104	304.5869
23.67987	324	147.0703	303.8213
23.6879	282	146.5283	302.9971
23.69593	305	145.9854	302.1172
23.70395	285	145.4326	301.1729
23.71198	294	144.877	300.1699
23.72	266	144.3223	299.1143
23.72803	325	143.7725	298.0107
23.73605	294	143.2158	296.8477
23.74408	300	142.6563	295.6299
23.75211	316	142.0918	294.3555
23.76013	292	141.5234	293.0283
23.76816	290	140.9434	291.6406
23.77618	280	140.3584	290.1992
23.78421	275	139.7744	288.7109
23.79223	300	139.2305	287.2178
23.80026	277	138.6826	285.6758
23.80828	290	138.123	284.0781
23.81631	270	137.5586	282.4326
23.82434	257	136.9873	280.7383
23.83236	288	136.4121	279.002
23.84039	295	135.8369	277.2256
23.84841	283	135.2539	275.4033
23.85644	300	134.667	273.541
23.86446	285	134.0742	271.6377
23.87249	289	133.4775	269.6982
23.88051	260	132.8828	267.7275
23.88854	269	132.2852	265.7227
23.89657	242	131.6826	263.6846
23.90459	279	131.0801	261.6182
23.91262	241	130.4639	259.5117
23.92064	235	129.8438	257.376
23.92867	268	129.2197	255.2129
23.93669	249	128.5957	253.0283
23.94472	269	127.9736	250.8232
23.95275	272	127.3984	248.6465
23.96077	278	126.8145	246.4443
23.9688	275	126.2207	244.2148
23.97682	249	125.6113	241.9551
23.98485	265	124.9941	239.6738
23.99287	251	124.3691	237.373
24.0009	247	123.7412	235.0576
24.00892	235	123.1143	232.7344
24.01695	219	122.5273	230.4414
24.02497	258	121.9365	228.1396
24.033	238	121.3428	225.8291
24.04103	220	120.7344	223.5
24.04905	217	120.1201	221.1621
24.05708	237	119.502	218.8184
24.0651	234	118.8828	216.4727
24.07313	209	118.2559	214.1211
24.08115	201	117.627	211.7686
24.08918	243	116.998	209.4189
24.09721	225	116.3662	207.0703
24.10523	216	115.7305	204.7236
24.11326	215	115.0928	202.3809
24.12128	233	114.4424	200.0332
24.12931	216	113.7861	197.6885
24.13733	188	113.1279	195.3486
24.14536	233	112.4678	193.0195
24.15339	207	111.8096	190.7012
24.16141	179	111.1475	188.3916
24.16944	204	110.4844	186.0938
24.17746	211	109.8242	183.8115
24.18549	176	109.2344	181.6143
24.19351	182	108.6445	179.4316
24.20154	176	108.0313	177.2402
24.20956	178	107.4072	175.0547
24.21759	178	106.7783	172.8809
24.22561	154	106.1484	170.7236
24.23364	162	105.5195	168.585
24.24167	176	104.9004	166.4736
24.24969	161	104.2803	164.3809
24.25772	195	103.6602	162.3057
24.26574	155	103.0254	160.2363
24.27377	150	102.3838	158.1807
24.2818	169	101.7373	156.1396
24.28982	158	101.0889	154.1162
24.29785	157	100.4414	152.1162
24.30587	149	99.80469	150.1465
24.3139	132	99.16699	148.1982
24.32192	135	98.50977	146.251
24.32995	133	97.84375	144.3164
24.33797	154	97.17969	142.4063
24.346	144	96.52832	140.5303
24.35402	129	95.86914	138.6689
24.36205	132	95.19922	136.8193
24.37008	121	94.52539	134.9873
24.3781	106	93.85449	133.1787
24.38613	116	93.16895	131.3799
24.39415	131	92.4668	129.5869
24.40218	116	91.76758	127.8184
24.4102	128	91.21289	126.2168
24.41823	112	90.64941	124.6289
24.42626	116	90.05273	123.0303
24.43428	133	89.44043	121.4404
24.44231	125	88.82813	119.8711
24.45033	116	88.19824	118.3096
24.45836	112	87.56152	116.7637
24.46638	104	86.92676	115.2451
24.47441	94	86.32031	113.7803
24.48244	99	85.71484	112.3418
24.49046	98	85.09277	110.9131
24.49849	96	84.46387	109.5059
24.50651	103	83.8252	108.1182
24.51454	109	83.18164	106.7588
24.52256	100	82.54004	105.4355
24.53059	95	81.90918	104.1592
24.53861	115	81.27832	102.9248
24.54664	95	80.62305	101.709
24.55466	89	79.95605	100.5322
24.56269	91	79.29199	99.41211
24.57072	80	78.6709	98.39551
24.57874	93	78.03711	97.43457
24.58677	81	77.3877	96.53516
24.59479	103	76.73242	95.71289
24.60282	85	76.07813	94.98828
24.61084	79	75.39258	94.33594
24.61887	84	74.69141	93.78711
24.6269	97	73.99414	93.37305
24.63492	85	73.49023	93.29492
24.64295	97	72.96289	93.35352
24.65097	88	72.40137	93.55078
24.659	80	71.82031	93.91699
24.66702	78	71.23145	94.48047
24.67505	89	70.62695	95.25
24.68307	89	70.0166	96.24805
24.6911	79	69.40918	97.49805
24.69913	102	68.83594	99.0459
24.70715	80	68.26172	100.8672
24.71518	91	67.67188	102.958
24.7232	100	67.07715	105.333
24.73123	123	66.46582	107.9883
24.73925	99	65.84863	110.9316
24.74728	98	65.2334	114.1709
24.7553	121	64.6377	117.7119
24.76333	108	64.04004	121.5234
24.77136	104	63.4209	125.5674
24.77938	108	62.79297	129.834
24.78741	114	62.16797	134.3066
24.79543	140	61.58496	138.9932
24.80346	148	60.98242	143.79
24.81148	139	60.36816	148.665
24.81951	154	59.75	153.5771
24.82754	169	59.13477	158.4834
24.83556	177	58.49023	163.2939
24.84359	164	57.83203	167.9707
24.85161	158	57.17773	172.4707
24.85964	175	56.70898	176.916
24.86766	175	56.22656	181.0518
24.87569	177	55.70215	184.79
24.88371	178	55.1582	188.1006
24.89174	167	54.61719	190.9551
24.89977	200	54.08496	193.3145
24.90779	199	53.53906	195.1152
24.91582	190	52.99609	196.3428
24.92384	182	52.47168	196.9863
24.93187	204	51.94727	197.0098
24.93989	207	51.41016	196.3896
24.94792	172	50.86719	195.1338
24.95594	175	50.31055	193.2402
24.96397	195	49.74902	190.7354
24.972	163	49.19043	187.6504
24.98002	214	48.64648	184.0293
24.98805	169	48.10059	179.8926
24.99607	180	47.54199	175.2744
25.0041	159	46.97852	170.2324
25.01213	171	46.41895	164.8271
25.02015	162	45.87891	159.1318
25.02818	143	45.32422	153.1709
25.0362	160	44.7627	147.0117
25.04423	151	44.2002	140.7168
25.05225	121	43.64063	134.3496
25.06028	139	43.06934	127.9492
25.0683	118	42.48633	121.5693
25.07633	123	41.9082	115.2734
25.08435	118	41.48145	109.2539
25.09238	105	41.04785	103.3936
25.10041	123	40.58008	97.69727
25.10843	90	40.09668	92.21582
25.11646	98	39.61719	86.99121
25.12448	90	39.16406	82.06738
25.13251	83	38.70117	77.4209
25.14053	61	38.23828	73.0752
25.14856	71	37.7793	69.03516
25.15659	70	37.31934	65.30273
25.16461	68	36.84961	61.86426
25.17264	81	36.37598	58.72266
25.18066	77	35.89453	55.86719
25.18869	60	35.41211	53.29297
25.19671	56	34.93164	50.99609
25.20474	50	34.45703	48.96582
25.21276	59	33.98145	47.18262
25.22079	59	33.50195	45.62988
25.22882	55	33.02246	44.29785
25.23684	66	32.54688	43.17578
25.24487	57	32.06348	42.2373
25.25289	44	31.57617	41.47266
25.26092	46	31.08887	40.87109
25.26894	59	30.60352	40.42188
25.27697	52	30.12109	40.1123
25.28499	66	29.6377	39.92383
25.29302	51	29.14941	39.84082
25.30105	43	28.66504	39.85938
25.30907	48	28.27344	40.05469
25.3171	59	27.88379	40.32422
25.32512	53	27.49609	40.65332
25.33315	47	27.10059	41.02148
25.34117	52	26.70801	41.42676
25.3492	50	26.33789	41.87695
25.35723	44	25.96191	42.3291
25.36525	56	25.58105	42.77344
25.37328	68	25.19922	43.20117
25.3813	49	24.81836	43.60352
25.38933	54	24.42773	43.95801
25.39735	53	24.03418	44.25977
25.40538	55	23.6377	44.5
25.4134	42	23.24316	44.67285
25.42143	58	22.85156	44.77246
25.42945	55	22.46094	44.78906
25.43748	69	22.07227	44.71777
25.44551	56	21.67969	44.54785
25.45353	47	21.28809	44.28027
25.46156	61	20.89844	43.91406
25.46958	38	20.50586	43.44336
25.47761	47	20.11328	42.87305
25.48563	47	19.7207	42.2041
25.49366	32	19.33008	41.44238
25.50169	45	18.94336	40.59473
25.50971	40	18.55957	39.66602
25.51774	50	18.1748	38.6582
25.52576	48	17.79395	37.58496
25.53379	32	17.43359	36.46973
25.54181	34	17.07617	35.30664
25.54984	38	16.78809	34.16797
25.55787	32	16.49707	32.99316
25.56589	33	16.20898	31.79688
25.57392	30	15.91406	30.57813
25.58194	32	15.61719	29.35059
25.58997	29	15.31836	28.12305
25.59799	26	15.02051	26.90625
25.60602	27	14.72559	25.70898
25.61404	28	14.42969	24.53516
25.62207	19	14.13379	23.38867
25.63009	11	13.83984	22.28027
25.63812	24	13.5459	21.20801
25.64615	17	13.25098	20.17578
25.65417	19	12.95703	19.1875
25.6622	22	12.66309	18.24414
25.67022	16	12.36719	17.34375
25.67825	14	12.07031	16.48926
25.68628	16	11.77637	15.68164
25.6943	14	11.4834	14.9209
25.70233	14	11.19434	14.20508
25.71035	10	10.9043	13.53027
25.71838	11	10.61621	12.89648
25.7264	11	10.33203	12.30273
25.73443	10	10.04395	11.74023
25.74245	10	9.755859	11.20898
25.75048	10	9.46875	10.70898
25.7585	8	9.18457	10.23828
25.76653	11	8.905273	9.795898
25.77456	10	8.84668	9.59668
25.78258	8	8.799805	9.428711
25.79061	6	8.75293	9.27832
25.79863	11	8.706055	9.141602
25.80666	9	8.654297	9.014648
25.81468	7	8.602539	8.900391
25.82271	6	8.551758	8.795898
25.83074	11	8.494141	8.692383
25.83876	13	8.435547	8.597656
25.84679	9	8.384766	8.516602
25.85481	6	8.328125	8.433594
25.86284	12	8.270508	8.355469
25.87086	12	8.224609	8.292969
25.87889	9	8.176758	8.231445
25.88692	7	8.12207	8.165039
25.89494	7	8.05957	8.09375
25.90297	13	7.992188	8.019531
25.91099	7	7.916016	7.9375
25.91902	5	7.835938	7.852539
25.92704	7	7.755859	7.768555
25.93507	8	7.817383	7.827148
25.94309	4	7.870117	7.878906
25.95112	8	7.917969	7.923828
25.95914	13	7.960938	7.96582
25.96717	4	8.001953	8.005859
25.9752	9	8.03418	8.037109
25.98322	11	8.0625	8.064453
25.99125	12	8.087891	8.089844
25.99927	8	8.107422	8.109375
26.0073	4	8.124023	8.125
26.01532	13	8.135742	8.136719
26.02335	14	8.145508	8.146484
26.03138	14	8.155273	8.15625
26.0394	17	8.186523	8.1875
26.04743	10	8.21875	8.219727
26.05545	6	8.246094	8.246094
26.06348	10	8.270508	8.270508
26.0715	10	8.289063	8.290039
26.07953	11	8.305664	8.305664
26.08755	6	8.320313	8.320313
26.09558	4	8.331055	8.331055
26.10361	7	8.339844	8.339844
26.11163	7	8.348633	8.348633
26.11966	6	8.362305	8.362305
26.12768	10	8.368164	8.369141
26.13571	9	8.375	8.375
26.14373	9	8.390625	8.390625
26.15176	15	8.40625	8.40625
26.15978	7	8.439453	8.439453
26.16781	11	8.466797	8.467773
26.17584	7	8.495117	8.495117
26.18386	10	8.526367	8.526367
26.19189	17	8.554688	8.554688
26.19991	4	8.582031	8.582031
26.20794	5	8.608398	8.608398
26.21596	13	8.632813	8.632813
26.22399	10	8.655273	8.655273
26.23202	6	8.676758	8.676758
26.24004	7	8.694336	8.694336
26.24807	9	8.710938	8.710938
26.25609	5	8.725586	8.726563
26.26412	15	8.741211	8.741211
26.27214	11	8.755859	8.755859
26.28017	10	8.767578	8.767578
26.28819	8	8.77832	8.77832
26.29622	9	8.788086	8.788086
26.30424	16	8.801758	8.801758
26.31227	9	8.8125	8.8125
26.3203	10	8.822266	8.822266
26.32832	8	8.830078	8.831055
26.33635	8	8.837891	8.837891
26.34437	19	8.844727	8.844727
26.3524	9	8.850586	8.850586
26.36042	13	8.855469	8.855469
26.36845	9	8.858398	8.859375
26.37648	11	8.861328	8.861328
26.3845	11	8.864258	8.864258
26.39253	8	8.867188	8.867188
26.40055	12	8.868164	8.868164
26.40858	10	8.869141	8.869141
26.4166	10	8.875977	8.875977
26.42463	13	8.881836	8.881836
26.43266	12	8.884766	8.884766
26.44068	10	8.886719	8.886719
26.44871	8	8.885742	8.885742
26.45673	7	8.883789	8.883789
26.46476	5	8.880859	8.880859
26.47278	8	8.880859	8.880859
26.48081	5	8.878906	8.879883
26.48883	9	8.871094	8.87207
26.49686	13	8.860352	8.861328
26.50489	7	8.849609	8.850586
26.51291	11	8.920898	8.921875
26.52094	16	8.988281	8.989258
26.52896	9	9.040039	9.040039
26.53699	8	9.083008	9.083984
26.54501	11	9.126953	9.126953
26.55304	12	9.173828	9.173828
26.56107	8	9.220703	9.220703
26.56909	10	9.263672	9.263672
26.57712	8	9.303711	9.304688
26.58514	15	9.337891	9.338867
26.59317	10	9.368164	9.369141
26.60119	15	9.399414	9.399414
26.60922	16	9.438477	9.439453
26.61724	18	9.473633	9.474609
26.62527	11	9.506836	9.506836
26.6333	11	9.535156	9.536133
26.64132	13	9.563477	9.563477
26.64935	13	9.583008	9.583008
26.65737	15	9.597656	9.598633
26.6654	9	9.613281	9.614258
26.67342	13	9.65918	9.660156
26.68145	9	9.704102	9.704102
26.68947	14	9.736328	9.737305
26.6975	14	9.762695	9.763672
26.70553	10	9.789063	9.790039
26.71355	15	9.806641	9.807617
26.72158	7	9.818359	9.819336
26.7296	16	9.830078	9.831055
26.73763	16	9.894531	9.895508
26.74565	16	9.956055	9.956055
26.75368	11	10.00195	10.00293
26.76171	13	10.04199	10.04297
26.76973	10	10.08105	10.08203
26.77776	7	10.11914	10.12012
26.78578	9	10.15332	10.1543
26.79381	15	10.1875	10.18848
26.80183	8	10.22852	10.22852
26.80986	8	10.26953	10.26953
26.81788	9	10.30859	10.30859
26.82591	13	10.34668	10.34668
26.83393	10	10.37988	10.37988
26.84196	20	10.41113	10.41113
26.84999	12	10.44141	10.44141
26.85801	16	10.46973	10.4707
26.86604	11	10.49902	10.49902
26.87406	7	10.52051	10.52148
26.88209	12	10.54004	10.54004
26.89011	21	10.55957	10.55957
26.89814	12	10.60059	10.60156
26.90617	15	10.64063	10.64063
26.91419	8	10.6709	10.6709
26.92222	13	10.69629	10.69629
26.93024	12	10.72266	10.72266
26.93827	10	10.74219	10.74316
26.94629	14	10.75586	10.75586
26.95432	17	10.76953	10.76953
26.96235	14	10.82617	10.82617
26.97037	15	10.87988	10.87988
26.9784	13	10.91992	10.9209
26.98642	16	10.9541	10.9541
26.99445	22	10.9873	10.9873
27.00247	15	11.02246	11.02246
27.0105	17	11.05371	11.05371
27.01852	15	11.08496	11.08496
27.02655	10	11.12402	11.12402
27.03457	12	11.16113	11.16113
27.0426	12	11.19629	11.19629
27.05063	21	11.23047	11.23047
27.05865	12	11.26074	11.26074
27.06668	16	11.28906	11.28906
27.0747	19	11.31543	11.31641
27.08273	21	11.34277	11.34277
27.09075	19	11.36914	11.36914
27.09878	14	11.39258	11.39355
27.10681	9	11.41309	11.41309
27.11483	22	11.43359	11.43359
27.12286	22	11.46875	11.46875
27.13088	17	11.50098	11.50098
27.13891	15	11.52734	11.52734
27.14693	20	11.5498	11.5498
27.15496	26	11.57227	11.57324
27.16298	14	11.59473	11.59473
27.17101	15	11.60938	11.61035
27.17904	22	11.625	11.625
27.18706	14	11.6709	11.6709
27.19509	18	11.71484	11.71582
27.20311	16	11.74707	11.74707
27.21114	20	11.77344	11.77344
27.21916	22	11.7998	11.7998
27.22719	20	11.83203	11.83203
27.23522	25	11.85938	11.86035
27.24324	29	11.8877	11.88867
27.25127	19	11.92188	11.92188
27.25929	21	11.95215	11.95313
27.26732	24	11.98145	11.98145
27.27534	25	12.00879	12.00879
27.28337	18	12.03516	12.03516
27.2914	18	12.06055	12.06055
27.29942	20	12.08496	12.08496
27.30745	24	12.1084	12.10938
27.31547	17	12.13281	12.13281
27.3235	23	12.1543	12.1543
27.33152	20	12.1748	12.1748
27.33955	14	12.19336	12.19336
27.34757	19	12.21094	12.21094
27.3556	26	12.22852	12.22852
27.36362	25	12.25391	12.25488
27.37165	20	12.27441	12.27539
27.37968	22	12.2959	12.2959
27.3877	15	12.32227	12.32227
27.39573	14	12.34277	12.34277
27.40375	28	12.36328	12.36328
27.41178	19	12.39258	12.39258
27.4198	19	12.42188	12.42188
27.42783	21	12.44629	12.44629
27.43586	14	12.46777	12.46777
27.44388	21	12.48926	12.48926
27.45191	16	12.5166	12.5166
27.45993	22	12.54004	12.54004
27.46796	20	12.5625	12.56348
27.47598	29	12.58496	12.58496
27.48401	24	12.60547	12.60547
27.49203	13	12.62695	12.62695
27.50006	22	12.64648	12.64648
27.50809	12	12.66406	12.66406
27.51611	16	12.68262	12.68262
27.52414	20	12.70215	12.70215
27.53216	21	12.71777	12.71777
27.54019	21	12.73242	12.73242
27.54821	24	12.74609	12.74609
27.55624	19	12.75879	12.75977
27.56426	18	12.76465	12.76465
27.57229	25	12.7666	12.76758
27.58032	22	12.76953	12.76953
27.58834	14	12.80371	12.80371
27.59637	20	12.83594	12.83594
27.60439	20	12.8623	12.8623
27.61242	23	12.88281	12.88379
27.62044	22	12.90137	12.90137
27.62847	18	12.91504	12.91504
27.6365	27	12.92676	12.92676
27.64452	19	12.9375	12.93848
27.65255	13	12.96484	12.96484
27.66057	17	12.99121	12.99121
27.6686	9	13.01172	13.01172
27.67662	19	13.0293	13.0293
27.68465	20	13.04492	13.04492
27.69267	16	13.06055	13.06055
27.7007	17	13.0752	13.0752
27.70872	14	13.08984	13.08984
27.71675	22	13.10254	13.10352
27.72478	19	13.11328	13.11328
27.7328	19	13.12305	13.12305
27.74083	23	13.13184	13.13281
27.74885	19	13.14453	13.14453
27.75688	23	13.1543	13.15527
27.7649	13	13.16211	13.16211
27.77293	18	13.16895	13.16895
27.78096	17	13.17383	13.17383
27.78898	14	13.17285	13.17285
27.79701	13	13.16992	13.16992
27.80503	26	13.16602	13.16699
27.81306	12	13.19629	13.19629
27.82108	20	13.22363	13.22363
27.82911	23	13.24414	13.24414
27.83714	22	13.26074	13.26074
27.84516	15	13.27539	13.27539
27.85319	11	13.28711	13.28711
27.86121	19	13.2959	13.2959
27.86924	12	13.30469	13.30469
27.87726	19	13.31934	13.31934
27.88529	20	13.33398	13.33398
27.89331	14	13.3457	13.3457
27.90134	12	13.35547	13.35547
27.90936	21	13.36426	13.36426
27.91739	22	13.37207	13.37207
27.92542	22	13.37891	13.37891
27.93344	15	13.38477	13.38477
27.94147	21	13.39063	13.39063
27.94949	18	13.39453	13.39453
27.95752	16	13.39844	13.39844
27.96555	14	13.40234	13.40234
27.97357	13	13.40918	13.40918
27.9816	16	13.41602	13.41602
27.98962	25	13.41699	13.41699
27.99765	16	13.41504	13.41504
28.00567	15	13.41016	13.41016
28.0137	14	13.4043	13.4043
28.02172	18	13.39746	13.39844
28.02975	12	13.41992	13.41992
28.03778	16	13.44043	13.44043
28.0458	22	13.45898	13.45898
28.05383	21	13.46973	13.46973
28.06185	18	13.47656	13.47656
28.06988	17	13.48145	13.48145
28.0779	20	13.48535	13.48535
28.08593	15	13.48926	13.48926
28.09395	13	13.50293	13.50293
28.10198	30	13.51563	13.51563
28.11001	11	13.51953	13.51953
28.11803	19	13.51953	13.51953
28.12606	14	13.52051	13.52051
28.13408	20	13.52637	13.52637
28.14211	23	13.5332	13.5332
28.15013	21	13.53613	13.53613
28.15816	26	13.53809	13.53809
28.16619	16	13.53516	13.53516
28.17421	12	13.53027	13.53027
28.18224	15	13.52637	13.52637
28.19026	16	13.53613	13.53613
28.19829	27	13.54199	13.54199
28.20631	11	13.54492	13.54492
28.21434	20	13.54102	13.54102
28.22236	18	13.53418	13.53418
28.23039	15	13.52148	13.52148
28.23841	11	13.50684	13.50684
28.24644	28	13.49121	13.49121
28.25447	22	13.52148	13.52148
28.26249	17	13.54688	13.54688
28.27052	24	13.56348	13.56348
28.27854	15	13.57324	13.57324
28.28657	23	13.57813	13.57813
28.29459	19	13.57715	13.57715
28.30262	18	13.57422	13.57422
28.31065	26	13.57129	13.57129
28.31867	18	13.58203	13.58203
28.3267	14	13.5918	13.5918
28.33472	19	13.58984	13.58984
28.34275	25	13.58105	13.58105
28.35077	15	13.57324	13.57324
28.3588	17	13.5791	13.5791
28.36683	13	13.58594	13.58594
28.37485	16	13.58984	13.58984
28.38288	21	13.59082	13.59082
28.3909	26	13.58496	13.58496
28.39893	28	13.57617	13.57617
28.40695	27	13.56641	13.56641
28.41498	25	13.57422	13.57422
28.423	19	13.5752	13.5752
28.43103	24	13.57129	13.57129
28.43905	26	13.56348	13.56348
28.44708	17	13.55664	13.55664
28.45511	29	13.54492	13.54492
28.46313	25	13.52539	13.52539
28.47116	22	13.50684	13.50684
28.47918	25	13.53516	13.53516
28.48721	23	13.56055	13.56055
28.49523	15	13.56738	13.56738
28.50326	19	13.56543	13.56543
28.51129	23	13.56348	13.56348
28.51931	21	13.57422	13.57422
28.52734	24	13.58008	13.58008
28.53536	31	13.58691	13.58691
28.54339	26	13.5918	13.5918
28.55141	25	13.59668	13.59668
28.55944	19	13.59082	13.59082
28.56746	20	13.5791	13.5791
28.57549	14	13.56738	13.56738
28.58352	15	13.57227	13.57227
28.59154	24	13.57715	13.57715
28.59957	29	13.5791	13.5791
28.60759	25	13.58008	13.58008
28.61562	30	13.56934	13.56934
28.62364	19	13.55273	13.55273
28.63167	18	13.53711	13.53711
28.6397	24	13.53809	13.53809
28.64772	12	13.53516	13.53516
28.65575	25	13.51758	13.51758
28.66377	23	13.49316	13.49316
28.6718	20	13.46875	13.46875
28.67982	17	13.48242	13.48242
28.68785	16	13.4834	13.4834
28.69588	10	13.4834	13.4834
28.7039	16	13.50586	13.50586
28.71193	15	13.52246	13.52246
28.71995	12	13.52246	13.52246
28.72798	18	13.51367	13.51367
28.736	14	13.50586	13.50586
28.74403	19	13.52832	13.52832
28.75205	13	13.54883	13.54883
28.76008	16	13.55957	13.55957
28.7681	12	13.56445	13.56445
28.77613	10	13.56543	13.56543
28.78416	17	13.56055	13.56055
28.79218	16	13.55273	13.55273
28.80021	14	13.54395	13.54395
28.80823	19	13.54102	13.54102
28.81626	19	13.53809	13.53809
28.82428	18	13.53516	13.53516
28.83231	9	13.5332	13.5332
28.84034	16	13.52148	13.52148
28.84836	12	13.50195	13.50195
28.85639	17	13.48242	13.48242
28.86441	12	13.48145	13.48145
28.87244	14	13.47461	13.47461
28.88046	12	13.44824	13.44824
28.88849	16	13.41406	13.41406
28.89651	13	13.37891	13.37891
28.90454	9	13.41211	13.41211
28.91257	20	13.43652	13.43652
28.92059	11	13.45996	13.45996
28.92862	17	13.48633	13.48633
28.93664	11	13.50781	13.50781
28.94467	9	13.51855	13.51855
28.95269	10	13.52441	13.52441
28.96072	27	13.5293	13.5293
28.96874	12	13.54395	13.54395
28.97677	11	13.55957	13.55957
28.9848	18	13.57324	13.57324
28.99282	17	13.58691	13.58691
29.00085	16	13.59277	13.59277
29.00887	17	13.59473	13.59473
29.0169	12	13.59668	13.59668
29.02492	13	13.60645	13.60645
29.03295	18	13.61426	13.61426
29.04098	14	13.6123	13.6123
29.049	13	13.60645	13.60645
29.05703	9	13.59961	13.59961
29.06505	15	13.61523	13.61523
29.07308	17	13.62598	13.62598
29.0811	22	13.63574	13.63574
29.08913	17	13.64063	13.64063
29.09715	19	13.64258	13.64258
29.10518	12	13.63477	13.63477
29.1132	15	13.62207	13.62207
29.12123	19	13.60938	13.60938
29.12926	14	13.63184	13.63184
29.13728	16	13.64746	13.64746
29.14531	18	13.66016	13.66016
29.15333	17	13.6709	13.6709
29.16136	12	13.67578	13.67578
29.16938	14	13.67773	13.67773
29.17741	16	13.67676	13.67676
29.18544	13	13.6748	13.6748
29.19346	12	13.67285	13.67285
29.20149	12	13.66895	13.66895
29.20951	24	13.66113	13.66113
29.21754	15	13.65332	13.65332
29.22556	15	13.65918	13.65918
29.23359	11	13.66113	13.66113
29.24162	10	13.65234	13.65234
29.24964	14	13.63672	13.63672
29.25767	16	13.62109	13.62109
29.26569	14	13.64648	13.64648
29.27372	14	13.6709	13.6709
29.28174	14	13.68555	13.68555
29.28977	17	13.69336	13.69336
29.29779	17	13.69629	13.69629
29.30582	10	13.69629	13.69629
29.31384	10	13.69336	13.69336
29.32187	18	13.69141	13.69141
29.3299	13	13.7041	13.7041
29.33792	7	13.7168	13.7168
29.34595	18	13.72656	13.72656
29.35397	20	13.73145	13.73145
29.362	10	13.73633	13.73633
29.37003	22	13.75195	13.75195
29.37805	14	13.76563	13.76563
29.38608	16	13.77246	13.77246
29.3941	9	13.77734	13.77734
29.40213	10	13.78125	13.78125
29.41015	18	13.79199	13.79199
29.41818	18	13.80176	13.80176
29.4262	19	13.80371	13.80371
29.43423	13	13.80273	13.80273
29.44226	15	13.80176	13.80176
29.45028	10	13.81543	13.81543
29.45831	15	13.82617	13.82617
29.46633	13	13.82813	13.82813
29.47436	20	13.8252	13.8252
29.48238	10	13.82324	13.82324
29.49041	11	13.84375	13.84375
29.49843	11	13.86328	13.86328
29.50646	26	13.87402	13.87402
29.51449	20	13.88086	13.88086
29.52251	15	13.8877	13.8877
29.53054	20	13.90137	13.90137
29.53856	18	13.91113	13.91113
29.54659	17	13.92188	13.92188
29.55461	13	13.93164	13.93164
29.56264	13	13.94043	13.94043
29.57067	18	13.94727	13.94727
29.57869	21	13.95313	13.95313
29.58672	16	13.95898	13.95898
29.59474	20	13.96387	13.96387
29.60277	13	13.96875	13.96875
29.61079	23	13.97266	13.97266
29.61882	19	13.97754	13.97754
29.62684	11	13.98242	13.98242
29.63487	13	13.98633	13.98633
29.64289	12	13.98926	13.98926
29.65092	13	13.99219	13.99219
29.65895	15	13.99512	13.99512
29.66697	16	13.99902	13.99902
29.675	15	14.00293	14.00293
29.68302	19	14.00586	14.00586
29.69105	11	14.00684	14.00684
29.69907	19	14.00586	14.00586
29.7071	16	14.00586	14.00586
29.71513	13	14.01367	14.01367
29.72315	13	14.01758	14.01758
29.73118	14	14.02148	14.02148
29.7392	9	14.03027	14.03027
29.74723	20	14.03418	14.03418
29.75525	23	14.03809	14.03809
29.76328	12	14.04297	14.04297
29.77131	17	14.04785	14.04785
29.77933	17	14.0459	14.0459
29.78736	13	14.04102	14.04102
29.79538	29	14.03516	14.03516
29.80341	15	14.04688	14.04688
29.81143	18	14.05664	14.05664
29.81946	18	14.05957	14.05957
29.82748	9	14.05957	14.05957
29.83551	14	14.05859	14.05859
29.84353	17	14.05371	14.05371
29.85156	27	14.0459	14.0459
29.85959	19	14.03711	14.03711
29.86761	16	14.04199	14.04199
29.87564	16	14.04688	14.04688
29.88366	16	14.0498	14.0498
29.89169	9	14.05078	14.05078
29.89971	18	14.04492	14.04492
29.90774	17	14.03516	14.03516
29.91577	9	14.02539	14.02539
29.92379	11	14.02441	14.02441
29.93182	18	14.01953	14.01953
29.93984	12	14.00195	14.00195
29.94787	16	13.97754	13.97754
29.95589	12	13.95313	13.95313
29.96392	16	13.9873	13.9873
29.97194	16	14.0166	14.0166
29.97997	18	14.03516	14.03516
29.988	13	14.04199	14.04199
29.99602	20	14.04297	14.04297
30.00405	19	14.03613	14.03613
30.01207	21	14.02734	14.02734
30.0201	13	14.01758	14.01758
30.02812	10	14.04297	14.04297
30.03615	11	14.06445	14.06445
30.04418	16	14.07422	14.07422
30.0522	23	14.07617	14.07617
30.06023	19	14.0791	14.0791
30.06825	25	14.08398	14.08398
30.07628	11	14.08301	14.08301
30.0843	14	14.08203	14.08203
30.09233	22	14.0918	14.0918
30.10036	23	14.09863	14.09863
30.10838	11	14.09668	14.09668
30.11641	16	14.09082	14.09082
30.12443	12	14.08398	14.08398
30.13246	13	14.09277	14.09277
30.14048	12	14.09961	14.09961
30.14851	23	14.09766	14.09766
30.15653	14	14.0918	14.0918
30.16456	13	14.08594	14.08594
30.17258	14	14.09473	14.09473
30.18061	19	14.09961	14.09961
30.18864	14	14.0957	14.0957
30.19666	8	14.08691	14.08691
30.20469	19	14.07813	14.07813
30.21271	16	14.08887	14.08887
30.22074	20	14.09375	14.09375
30.22876	12	14.08887	14.08887
30.23679	9	14.08008	14.08008
30.24482	14	14.07031	14.07031
30.25284	21	14.07813	14.07813
30.26087	15	14.07227	14.07227
30.26889	17	14.06738	14.06738
30.27692	17	14.06836	14.06836
30.28494	11	14.06641	14.06641
30.29297	18	14.05176	14.05176
30.30099	12	14.03027	14.03027
30.30902	12	14.00879	14.00879
30.31705	14	14.03418	14.03418
30.32507	13	14.05371	14.05371
30.3331	21	14.05371	14.05371
30.34112	13	14.04297	14.04297
30.34915	18	14.0332	14.0332
30.35717	20	14.05273	14.05273
30.3652	16	14.06152	14.06152
30.37322	18	14.06348	14.06348
30.38125	13	14.06055	14.06055
30.38928	12	14.05762	14.05762
30.3973	19	14.07422	14.07422
30.40533	15	14.08203	14.08203
30.41335	18	14.08105	14.08105
30.42138	25	14.07422	14.07422
30.4294	12	14.06738	14.06738
30.43743	16	14.08105	14.08105
30.44546	12	14.08984	14.08984
30.45348	24	14.08789	14.08789
30.46151	16	14.08203	14.08203
30.46953	14	14.07617	14.07617
30.47756	14	14.06445	14.06445
30.48558	12	14.04492	14.04492
30.49361	15	14.02637	14.02637
30.50163	11	14.02539	14.02539
30.50966	17	14.02246	14.02246
30.51768	17	14	14
30.52571	14	13.96777	13.96777
30.53374	15	13.93457	13.93457
30.54176	15	13.97363	13.97363
30.54979	14	14.00586	14.00586
30.55781	19	14.01172	14.01172
30.56584	16	14.00488	14.00488
30.57386	12	13.99805	13.99805
30.58189	16	14.01953	14.01953
30.58992	12	14.0293	14.0293
30.59794	13	14.04004	14.04004
30.60597	10	14.05078	14.05078
30.61399	13	14.06152	14.06152
30.62202	24	14.07422	14.07422
30.63004	18	14.07813	14.07813
30.63807	12	14.0752	14.0752
30.6461	24	14.06934	14.06934
30.65412	24	14.06348	14.06348
30.66215	17	14.0791	14.0791
30.67017	16	14.08691	14.08691
30.6782	18	14.08398	14.08398
30.68622	17	14.0752	14.0752
30.69425	13	14.06543	14.06543
30.70227	24	14.06152	14.06152
30.7103	14	14.04395	14.04395
30.71832	12	14.02734	14.02734
30.72635	14	14.03027	14.03027
30.73438	12	14.03125	14.03125
30.7424	9	14.00586	14.00586
30.75043	16	13.9668	13.9668
30.75845	20	13.92773	13.92773
30.76648	17	13.97656	13.97656
30.77451	18	14.01758	14.01758
30.78253	12	14.02637	14.02637
30.79056	7	14.02051	14.02051
30.79858	23	14.01367	14.01367
30.80661	11	14.03711	14.03711
30.81463	15	14.0498	14.0498
30.82266	19	14.0625	14.0625
30.83068	21	14.08105	14.08105
30.83871	10	14.09961	14.09961
30.84674	16	14.11035	14.11035
30.85476	17	14.11328	14.11328
30.86279	20	14.11328	14.11328
30.87081	23	14.11035	14.11035
30.87884	14	14.10742	14.10742
30.88686	21	14.12109	14.12109
30.89489	23	14.12793	14.12793
30.90291	10	14.12598	14.12598
30.91094	17	14.12012	14.12012
30.91897	19	14.11426	14.11426
30.92699	10	14.11816	14.11816
30.93502	9	14.10938	14.10938
30.94304	12	14.10156	14.10156
30.95107	21	14.10352	14.10352
30.95909	14	14.10352	14.10352
30.96712	10	14.08496	14.08496
30.97515	8	14.05566	14.05566
30.98317	26	14.02734	14.02734
30.9912	7	14.06348	14.06348
30.99922	18	14.09277	14.09277
31.00725	14	14.10059	14.10059
31.01527	12	14.0957	14.0957
31.0233	24	14.0918	14.0918
31.03132	14	14.11035	14.11035
31.03935	18	14.12305	14.12305
31.04737	21	14.13477	14.13477
31.0554	16	14.14551	14.14551
31.06343	21	14.15625	14.15625
31.07145	13	14.16211	14.16211
31.07948	14	14.16406	14.16406
31.0875	18	14.16211	14.16211
31.09553	24	14.15918	14.15918
31.10355	12	14.15625	14.15625
31.11158	21	14.16406	14.16406
31.11961	11	14.16699	14.16699
31.12763	17	14.16504	14.16504
31.13566	23	14.16113	14.16113
31.14368	12	14.15625	14.15625
31.15171	16	14.1543	14.1543
31.15973	16	14.14258	14.14258
31.16776	11	14.13184	14.13184
31.17579	21	14.13867	14.13867
31.18381	18	14.14258	14.14258
31.19184	17	14.13184	14.13184
31.19986	8	14.1123	14.1123
31.20789	20	14.09277	14.09277
31.21591	16	14.11328	14.11328
31.22394	21	14.12988	14.12988
31.23196	14	14.12891	14.12891
31.23999	18	14.12109	14.12109
31.24801	15	14.11328	14.11328
31.25604	9	14.12891	14.12891
31.26407	11	14.14063	14.14063
31.27209	11	14.1416	14.1416
31.28012	10	14.13672	14.13672
31.28814	23	14.13281	14.13281
31.29617	20	14.14551	14.14551
31.30419	18	14.15332	14.15332
31.31222	10	14.15332	14.15332
31.32025	16	14.15039	14.15039
31.32827	11	14.14648	14.14648
31.3363	12	14.14453	14.14453
31.34432	17	14.13574	14.13574
31.35235	15	14.12695	14.12695
31.36037	23	14.12891	14.12891
31.3684	14	14.13086	14.13086
31.37642	16	14.11914	14.11914
31.38445	19	14.10059	14.10059
31.39248	16	14.08301	14.08301
31.4005	21	14.10059	14.10059
31.40853	13	14.11719	14.11719
31.41655	12	14.12012	14.12012
31.42458	15	14.11621	14.11621
31.4326	16	14.1123	14.1123
31.44063	19	14.11328	14.11328
31.44865	9	14.11035	14.11035
31.45668	11	14.10352	14.10352
31.46471	20	14.09473	14.09473
31.47273	19	14.08594	14.08594
31.48076	21	14.08984	14.08984
31.48878	11	14.09082	14.09082
31.49681	13	14.08301	14.08301
31.50484	19	14.07129	14.07129
31.51286	13	14.05859	14.05859
31.52089	21	14.07031	14.07031
31.52891	13	14.0752	14.0752
31.53694	13	14.07129	14.07129
31.54496	14	14.06152	14.06152
31.55299	14	14.05176	14.05176
31.56101	17	14.05371	14.05371
31.56904	13	14.04883	14.04883
31.57706	18	14.04297	14.04297
31.58509	9	14.04102	14.04102
31.59312	10	14.03711	14.03711
31.60114	16	14.02051	14.02051
31.60917	13	13.99805	13.99805
31.61719	14	13.97559	13.97559
31.62522	15	13.99609	13.99609
31.63324	25	14.0127	14.0127
31.64127	12	14.01758	14.01758
31.6493	13	14.0166	14.0166
31.65732	22	14.01563	14.01563
31.66535	15	14.01367	14.01367
31.67337	11	14.00879	14.00879
31.6814	10	14.00098	14.00098
31.68942	19	13.99219	13.99219
31.69745	15	13.98242	13.98242
31.70547	14	13.9834	13.9834
31.7135	7	13.98242	13.98242
31.72153	17	13.97363	13.97363
31.72955	27	13.96191	13.96191
31.73758	14	13.9502	13.9502
31.7456	15	13.95508	13.95508
31.75363	10	13.95605	13.95605
31.76165	11	13.94727	13.94727
31.76968	23	13.93555	13.93555
31.7777	13	13.92285	13.92285
31.78573	18	13.9248	13.9248
31.79376	21	13.92188	13.92188
31.80178	18	13.91797	13.91797
31.80981	19	13.91406	13.91406
31.81783	12	13.9082	13.9082
31.82586	19	13.89258	13.89258
31.83388	21	13.87109	13.87109
31.84191	19	13.84961	13.84961
31.84994	20	13.86523	13.86523
31.85796	19	13.87793	13.87793
31.86599	15	13.88086	13.88086
31.87401	16	13.87891	13.87891
31.88204	16	13.87793	13.87793
31.89006	16	13.87402	13.87402
31.89809	16	13.86816	13.86816
31.90611	14	13.86035	13.86035
31.91414	16	13.85156	13.85156
31.92216	15	13.8418	13.8418
31.93019	17	13.84082	13.84082
31.93822	22	13.83789	13.83789
31.94624	13	13.8291	13.8291
31.95427	23	13.81836	13.81836
31.96229	21	13.80664	13.80664
31.97032	18	13.80859	13.80859
31.97834	10	13.80762	13.80762
31.98637	15	13.7998	13.7998
31.9944	22	13.78711	13.78711
32.00242	19	13.77539	13.77539
32.01045	20	13.77637	13.77637
32.01847	18	13.77246	13.77246
32.0265	17	13.76855	13.76855
32.03452	17	13.7627	13.7627
32.04255	15	13.75781	13.75781
32.05058	18	13.74316	13.74316
32.0586	20	13.72461	13.72461
32.06663	27	13.70605	13.70605
32.07465	16	13.71582	13.71582
32.08268	15	13.72363	13.72363
32.0907	13	13.72363	13.72363
32.09873	21	13.71875	13.71875
32.10675	9	13.71387	13.71387
32.11478	12	13.70996	13.70996
32.12281	20	13.7041	13.7041
32.13083	18	13.69434	13.69434
32.13885	12	13.68457	13.68457
32.14688	14	13.67383	13.67383
32.15491	22	13.67188	13.67188
32.16293	15	13.66797	13.66797
32.17096	27	13.6582	13.6582
32.17899	9	13.64648	13.64648
32.18701	20	13.63477	13.63477
32.19503	21	13.63672	13.63672
32.20306	10	13.6377	13.6377
32.21109	20	13.63184	13.63184
32.21911	14	13.62207	13.62207
32.22714	20	13.61328	13.61328
32.23516	14	13.61133	13.61133
32.24319	20	13.60547	13.60547
32.25122	16	13.59961	13.59961
32.25924	14	13.59473	13.59473
32.26727	17	13.58887	13.58887
32.27529	12	13.57715	13.57715
32.28332	15	13.56348	13.56348
32.29134	17	13.54883	13.54883
32.29937	16	13.55176	13.55176
32.3074	15	13.55371	13.55371
32.31542	16	13.54883	13.54883
32.32344	24	13.54004	13.54004
32.33147	16	13.53223	13.53223
32.3395	17	13.52734	13.52734
32.34752	19	13.52148	13.52148
32.35555	15	13.51172	13.51172
32.36357	16	13.49902	13.49902
32.3716	19	13.4873	13.4873
32.37962	15	13.48438	13.48438
32.38765	24	13.47949	13.47949
32.39568	20	13.46875	13.46875
32.4037	10	13.45605	13.45605
32.41173	20	13.44238	13.44238
32.41975	14	13.44629	13.44629
32.42778	13	13.44824	13.44824
32.4358	21	13.44434	13.44434
32.44383	14	13.4375	13.4375
32.45185	15	13.43066	13.43066
32.45988	9	13.42383	13.42383
32.46791	12	13.41406	13.41406
32.47593	12	13.4043	13.4043
32.48396	19	13.40234	13.40234
32.49198	17	13.39844	13.39844
32.50001	15	13.39063	13.39063
32.50803	15	13.38184	13.38184
32.51606	17	13.37207	13.37207
32.52409	13	13.36816	13.36816
32.53211	9	13.36426	13.36426
32.54014	15	13.35645	13.35645
32.54816	19	13.34766	13.34766
32.55619	19	13.33887	13.33887
32.56421	17	13.33203	13.33203
32.57224	9	13.32422	13.32422
32.58027	15	13.31348	13.31348
32.58829	20	13.30273	13.30273
32.59632	18	13.29102	13.29102
32.60434	13	13.28516	13.28516
32.61237	16	13.27832	13.27832
32.62039	17	13.26758	13.26758
32.62842	15	13.25488	13.25488
32.63644	15	13.24219	13.24219
32.64447	20	13.24316	13.24316
32.6525	22	13.24219	13.24219
32.66052	16	13.23828	13.23828
32.66854	18	13.23242	13.23242
32.67657	12	13.22559	13.22559
32.6846	12	13.2168	13.2168
32.69262	8	13.20801	13.20801
32.70065	16	13.19824	13.19824
32.70868	17	13.19434	13.19434
32.7167	17	13.19043	13.19043
32.72472	12	13.18457	13.18457
32.73275	11	13.17773	13.17773
32.74078	12	13.1709	13.1709
32.7488	17	13.16406	13.16406
32.75683	17	13.15723	13.15723
32.76485	20	13.14941	13.14941
32.77288	17	13.14063	13.14063
32.7809	20	13.13281	13.13281
32.78893	17	13.12402	13.12402
32.79696	11	13.11523	13.11523
32.80498	13	13.10645	13.10645
32.81301	15	13.09668	13.09668
32.82103	18	13.08691	13.08691
32.82906	19	13.07617	13.07617
32.83709	15	13.06543	13.06543
32.84511	11	13.05469	13.05469
32.85313	0	0	0
